"slide_number_in_experiment","label","Answer.time_in_minutes","trial_type","rt","workerid","response","object","speaker_cond"
1,"",23.758,"bot_check",0,0,"Zeynep","Zeynep","first_post"
3,"hat_big_orange",23.758,"overinformativeness",23132,0,"Hat","hat","first_post"
4,"pot_big_blue",23.758,"overinformativeness",268278,0,"Hot Box","pot","first_post"
5,"woman_young_sad",23.758,"adjective_ordering",12047,0,"Sad face of women","woman","first_post"
6,"shorts_wet_green",23.758,"adjective_ordering",10456,0,"Trouser","shorts","first_post"
7,"hair_straight_blond",23.758,"adjective_ordering",35033,0,"Long grey hair","hair","first_post"
8,"pepper_big_red",23.758,"overinformativeness",10270,0,"Capsicum","pepper","first_post"
9,"earring_small_round",23.758,"adjective_ordering",35910,0,"Ear ring","earring","first_post"
10,"button_big_blue",23.758,"overinformativeness",9936,0,"Shirt Button","button","first_post"
11,"tie_big_blue",23.758,"overinformativeness",8135,0,"Tye","tie","first_post"
12,"clock_big_yellow",23.758,"overinformativeness",7345,0,"Alarm Clock","clock","first_post"
13,"knife_big_red",23.758,"overinformativeness",4383,0,"Knife","knife","first_post"
14,"pencil_short_black",23.758,"adjective_ordering",6168,0,"Pencil","pencil","first_post"
15,"bottle_plastic_small",23.758,"adjective_ordering",5839,0,"Water Bottle","bottle","first_post"
16,"earring_big_round",23.758,"adjective_ordering",4448,0,"Ear ring","earring","first_post"
17,"binoculars_big_red",23.758,"overinformativeness",6200,0,"Binocular","binoculars","first_post"
18,"earring_small_triangular",23.758,"adjective_ordering",4832,0,"Ear ring","earring","first_post"
19,"shoe_big_yellow",23.758,"overinformativeness",5144,0,"Shoe","shoe","first_post"
20,"hat_big_pink",23.758,"overinformativeness",3656,0,"Hat","hat","first_post"
21,"ball_big_purple",23.758,"overinformativeness",15935,0,"Circle ","ball","first_post"
22,"clock_big_purple",23.758,"overinformativeness",7169,0,"Alarm clock","clock","first_post"
23,"hair_curly_blonde",23.758,"adjective_ordering",13576,0,"Curly hair","hair","first_post"
24,"socks_big_blue",23.758,"overinformativeness",24207,0,"Pair of Socks","socks","first_post"
25,"glasses_big_red",23.758,"overinformativeness",11152,0,"Eye Glass","glasses","first_post"
26,"table_wood_high",23.758,"adjective_ordering",6446,0,"Table","table","first_post"
27,"cup_empty_metal",23.758,"adjective_ordering",9793,0,"Tea cup","cup","first_post"
28,"apple_big_red",23.758,"overinformativeness",6032,0,"Apple","apple","first_post"
29,"pepper_big_green",23.758,"overinformativeness",10408,0,"Capsicum","pepper","first_post"
30,"rosary_big_yellow",23.758,"overinformativeness",7623,0,"Necklace","rosary","first_post"
31,"dress_big_green",23.758,"overinformativeness",6015,0,"Gown","dress","first_post"
32,"pants_big_pink",23.758,"overinformativeness",4664,0,"Pant","pants","first_post"
33,"lipstick_big_pink",23.758,"overinformativeness",5905,0,"Lip stick","lipstick","first_post"
34,"box_closed_wood",23.758,"adjective_ordering",8511,0,"Wooden Box","box","first_post"
35,"brush_big_blue",23.758,"overinformativeness",3937,0,"Brush","brush","first_post"
36,"mirror_big_black",23.758,"overinformativeness",5896,0,"Hand Mirror","mirror","first_post"
37,"chair_big_yellow",23.758,"overinformativeness",6145,0,"Chair","chair","first_post"
38,"table_metal_low",23.758,"adjective_ordering",4085,0,"Table","table","first_post"
39,"car_big_green",23.758,"overinformativeness",24418,0,"Car","car","first_post"
40,"tshirt_big_orange",23.758,"overinformativeness",5487,0,"Shirt","tshirt","first_post"
41,"table_metal_high",23.758,"adjective_ordering",6511,0,"Table","table","first_post"
42,"spoon_metal_clean",23.758,"adjective_ordering",3774,0,"Spoon","spoon","first_post"
43,"pants_big_green",23.758,"overinformativeness",3497,0,"Pant","pants","first_post"
44,"book_big_blue",23.758,"overinformativeness",3992,0,"Book","book","first_post"
45,"mirror_big_white",23.758,"overinformativeness",5054,0,"Hand Mirror","mirror","first_post"
46,"spoon_wooden_clean",23.758,"adjective_ordering",4433,0,"Spoon","spoon","first_post"
47,"socks_big_green",23.758,"overinformativeness",6008,0,"Pair of socks","socks","first_post"
48,"button_big_green",23.758,"overinformativeness",7992,0,"Shirt Button","button","first_post"
49,"cup_empty_glass",23.758,"adjective_ordering",4439,0,"Glass","cup","first_post"
50,"picture_bw_rectangular",23.758,"adjective_ordering",6223,0,"Painting frame","picture","first_post"
51,"lock_big_gold",23.758,"overinformativeness",5016,0,"Lock","lock","first_post"
52,"table_wood_low",23.758,"adjective_ordering",3682,0,"Table","table","first_post"
53,"key_big_silver",23.758,"overinformativeness",5053,0,"Key","key","first_post"
54,"pencil_short_blue",23.758,"adjective_ordering",6681,0,"Pencil","pencil","first_post"
55,"lighter_big_black",23.758,"overinformativeness",7224,0,"Lighter","lighter","first_post"
56,"ball_big_yellow",23.758,"overinformativeness",7935,0,"Circle","ball","first_post"
57,"box_open_cardboard",23.758,"adjective_ordering",4601,0,"Box","box","first_post"
58,"brush_big_red",23.758,"overinformativeness",4304,0,"Brush","brush","first_post"
59,"cup_full_metal",23.758,"adjective_ordering",5000,0,"Tea cup","cup","first_post"
60,"dress_big_blue",23.758,"overinformativeness",3504,0,"Gown","dress","first_post"
61,"tie_big_red",23.758,"overinformativeness",2952,0,"Tye","tie","first_post"
62,"picture_bw_square",23.758,"adjective_ordering",7152,0,"Painting Frame","picture","first_post"
63,"glove_big_orange",23.758,"overinformativeness",6656,0,"Glove","glove","first_post"
64,"book_big_red",23.758,"overinformativeness",4759,0,"Book","book","first_post"
65,"cat_big_black",23.758,"overinformativeness",4655,0,"Black Cat","cat","first_post"
66,"toothbrush_big_green",23.758,"overinformativeness",6503,0,"Tooth Brush","toothbrush","first_post"
67,"bag_big_blue",23.758,"overinformativeness",3775,0,"Bag","bag","first_post"
68,"tshirt_big_yellow",23.758,"overinformativeness",4863,0,"Shirt","tshirt","first_post"
69,"shorts_dry_red",23.758,"adjective_ordering",5368,0,"Trouser","shorts","first_post"
70,"balloon_big_yellow",23.758,"overinformativeness",7169,0,"Baloon","balloon","first_post"
71,"man_young_bald",23.758,"adjective_ordering",8712,0,"A man","man","first_post"
72,"lipstick_big_red",23.758,"overinformativeness",7372,0,"LipStick","lipstick","first_post"
73,"binoculars_big_blue",23.758,"overinformativeness",4755,0,"Binocular","binoculars","first_post"
74,"shorts_wet_red",23.758,"adjective_ordering",4695,0,"Trouser","shorts","first_post"
75,"pot_big_green",23.758,"overinformativeness",5215,0,"Hot Pan","pot","first_post"
76,"box_closed_cardboard",23.758,"adjective_ordering",3288,0,"Box","box","first_post"
77,"key_big_gold",23.758,"overinformativeness",3224,0,"Key","key","first_post"
78,"flower_big_yellow",23.758,"overinformativeness",5336,0,"Sunflower","flower","first_post"
79,"pencil_long_blue",23.758,"adjective_ordering",4023,0,"Pencil","pencil","first_post"
80,"woman_old_sad",23.758,"adjective_ordering",9432,0,"An old woman","woman","first_post"
81,"woman_old_happy",23.758,"adjective_ordering",9719,0,"A happy old woman","woman","first_post"
82,"picture_colored_rectangular",23.758,"adjective_ordering",9983,0,"Painting Frame","picture","first_post"
83,"bottle_plastic_big",23.758,"adjective_ordering",5863,0,"Water Bottle","bottle","first_post"
84,"cat_big_white",23.758,"overinformativeness",4375,0,"White Cat","cat","first_post"
85,"shorts_dry_green",23.758,"adjective_ordering",3968,0,"Trouser","shorts","first_post"
86,"man_old_bearded",23.758,"adjective_ordering",5286,0,"An old man","man","first_post"
87,"skirt_big_green",23.758,"overinformativeness",15809,0,"Women outfit","skirt","first_post"
88,"lighter_big_white",23.758,"overinformativeness",4361,0,"Lighter","lighter","first_post"
89,"bottle_glass_small",23.758,"adjective_ordering",7793,0,"Bottle","bottle","first_post"
90,"man_old_bald",23.758,"adjective_ordering",5320,0,"An old man","man","first_post"
91,"shorts_wrinkled_green",23.758,"adjective_ordering",6752,0,"Trouser","shorts","first_post"
92,"hair_straight_brown",23.758,"adjective_ordering",6023,0,"A long hair","hair","first_post"
93,"spoon_wooden_dirty",23.758,"adjective_ordering",3832,0,"Spoon","spoon","first_post"
94,"flower_big_pink",23.758,"overinformativeness",4697,0,"Sunflower","flower","first_post"
95,"glasses_big_blue",23.758,"overinformativeness",5830,0,"Eye Glass","glasses","first_post"
96,"knife_big_blue",23.758,"overinformativeness",3456,0,"Knife","knife","first_post"
97,"cup_full_glass",23.758,"adjective_ordering",6087,0,"Glass","cup","first_post"
98,"rosary_big_blue",23.758,"overinformativeness",4919,0,"Necklace","rosary","first_post"
99,"scissors_big_blue",23.758,"overinformativeness",6977,0,"Scissor","scissors","first_post"
100,"glove_big_green",23.758,"overinformativeness",4087,0,"Gloves","glove","first_post"
101,"chair_big_blue",23.758,"overinformativeness",4097,0,"Table","chair","first_post"
102,"hair_curly_brown",23.758,"adjective_ordering",4967,0,"Curly hair","hair","first_post"
103,"umbrella_big_blue",23.758,"overinformativeness",4718,0,"Umberalla","umbrella","first_post"
104,"umbrella_big_green",23.758,"overinformativeness",6386,0,"Umberalla","umbrella","first_post"
105,"bag_big_red",23.758,"overinformativeness",2861,0,"Bag","bag","first_post"
106,"shorts_wrinkled_red",23.758,"adjective_ordering",4716,0,"Trouser","shorts","first_post"
107,"earring_big_triangular",23.758,"adjective_ordering",4983,0,"Ear ring","earring","first_post"
108,"bottle_glass_big",23.758,"adjective_ordering",16408,0,"Bottle","bottle","first_post"
109,"car_big_blue",23.758,"overinformativeness",3344,0,"Car","car","first_post"
110,"lock_big_silver",23.758,"overinformativeness",8927,0,"Lock","lock","first_post"
111,"toothbrush_big_purple",23.758,"overinformativeness",5289,0,"Tooth Brush","toothbrush","first_post"
112,"box_open_wood",23.758,"adjective_ordering",5920,0,"Wooden Box","box","first_post"
113,"pencil_long_black",23.758,"adjective_ordering",5304,0,"Pencil","pencil","first_post"
114,"spoon_metal_dirty",23.758,"adjective_ordering",4400,0,"Spoon","spoon","first_post"
115,"apple_big_green",23.758,"overinformativeness",3888,0,"Apple","apple","first_post"
116,"scissors_big_green",23.758,"overinformativeness",4073,0,"Scissor","scissors","first_post"
117,"balloon_big_pink",23.758,"overinformativeness",4456,0,"Baloon","balloon","first_post"
118,"man_young_bearded",23.758,"adjective_ordering",6383,0,"A happy man","man","first_post"
119,"skirt_big_blue",23.758,"overinformativeness",7190,0,"Women Outfit","skirt","first_post"
120,"woman_young_happy",23.758,"adjective_ordering",8448,0,"Happy woman","woman","first_post"
121,"picture_colored_square",23.758,"adjective_ordering",6663,0,"Painting frame","picture","first_post"
122,"shoe_big_pink",23.758,"overinformativeness",4887,0,"Shoe","shoe","first_post"
1,"",19.8595666666667,"bot_check",0,1,"Zeynep","Zeynep","first_post"
3,"shoe_big_pink",19.8595666666667,"overinformativeness",17096,1,"ayakkabı","shoe","first_post"
4,"woman_old_happy",19.8595666666667,"adjective_ordering",10580,1,"kadın","woman","first_post"
5,"hat_big_pink",19.8595666666667,"overinformativeness",12521,1,"şapka","hat","first_post"
6,"book_big_red",19.8595666666667,"overinformativeness",14425,1,"kitap","book","first_post"
7,"earring_small_triangular",19.8595666666667,"adjective_ordering",9774,1,"küpe","earring","first_post"
8,"pepper_big_green",19.8595666666667,"overinformativeness",6189,1,"biber","pepper","first_post"
9,"book_big_blue",19.8595666666667,"overinformativeness",5630,1,"kitap","book","first_post"
10,"shorts_wrinkled_red",19.8595666666667,"adjective_ordering",55256,1,"şort","shorts","first_post"
11,"lipstick_big_pink",19.8595666666667,"overinformativeness",13327,1,"ruj","lipstick","first_post"
12,"earring_big_triangular",19.8595666666667,"adjective_ordering",15030,1,"küpe","earring","first_post"
13,"shoe_big_yellow",19.8595666666667,"overinformativeness",10184,1,"ayakkabı","shoe","first_post"
14,"hair_curly_brown",19.8595666666667,"adjective_ordering",40721,1,"peruk","hair","first_post"
15,"brush_big_blue",19.8595666666667,"overinformativeness",8101,1,"fırça","brush","first_post"
16,"flower_big_yellow",19.8595666666667,"overinformativeness",9757,1,"çiçek","flower","first_post"
17,"bottle_glass_big",19.8595666666667,"adjective_ordering",9379,1,"şişe","bottle","first_post"
18,"dress_big_green",19.8595666666667,"overinformativeness",10350,1,"elbise","dress","first_post"
19,"pencil_long_blue",19.8595666666667,"adjective_ordering",5012,1,"kalem","pencil","first_post"
20,"woman_old_sad",19.8595666666667,"adjective_ordering",42652,1,"kadın","woman","first_post"
21,"shorts_dry_green",19.8595666666667,"adjective_ordering",9453,1,"şort","shorts","first_post"
22,"earring_small_round",19.8595666666667,"adjective_ordering",5267,1,"küpe","earring","first_post"
23,"lipstick_big_red",19.8595666666667,"overinformativeness",4535,1,"ruj","lipstick","first_post"
24,"pot_big_green",19.8595666666667,"overinformativeness",7500,1,"tencere","pot","first_post"
25,"spoon_metal_clean",19.8595666666667,"adjective_ordering",5239,1,"kaşık","spoon","first_post"
26,"socks_big_blue",19.8595666666667,"overinformativeness",5263,1,"çorap","socks","first_post"
27,"spoon_wooden_clean",19.8595666666667,"adjective_ordering",6102,1,"kaşık","spoon","first_post"
28,"glove_big_green",19.8595666666667,"overinformativeness",7491,1,"eldiven","glove","first_post"
29,"bottle_plastic_big",19.8595666666667,"adjective_ordering",4569,1,"şişe","bottle","first_post"
30,"glasses_big_red",19.8595666666667,"overinformativeness",14843,1,"gözlük","glasses","first_post"
31,"lighter_big_black",19.8595666666667,"overinformativeness",10250,1,"çakmak","lighter","first_post"
32,"shorts_wrinkled_green",19.8595666666667,"adjective_ordering",5532,1,"şort","shorts","first_post"
33,"pepper_big_red",19.8595666666667,"overinformativeness",11384,1,"biber","pepper","first_post"
34,"key_big_gold",19.8595666666667,"overinformativeness",4755,1,"anahtar","key","first_post"
35,"chair_big_blue",19.8595666666667,"overinformativeness",6179,1,"sandalye","chair","first_post"
36,"picture_bw_rectangular",19.8595666666667,"adjective_ordering",8118,1,"tablo","picture","first_post"
37,"scissors_big_blue",19.8595666666667,"overinformativeness",4441,1,"makas","scissors","first_post"
38,"cup_empty_metal",19.8595666666667,"adjective_ordering",18380,1,"fincan","cup","first_post"
39,"knife_big_blue",19.8595666666667,"overinformativeness",14461,1,"bıçak","knife","first_post"
40,"scissors_big_green",19.8595666666667,"overinformativeness",3515,1,"makas","scissors","first_post"
41,"balloon_big_pink",19.8595666666667,"overinformativeness",3653,1,"balon","balloon","first_post"
42,"skirt_big_blue",19.8595666666667,"overinformativeness",5562,1,"etek","skirt","first_post"
43,"toothbrush_big_purple",19.8595666666667,"overinformativeness",21131,1,"diş fırçası","toothbrush","first_post"
44,"man_young_bearded",19.8595666666667,"adjective_ordering",48300,1,"adam","man","first_post"
45,"car_big_blue",19.8595666666667,"overinformativeness",25096,1,"oyuncak araba","car","first_post"
46,"chair_big_yellow",19.8595666666667,"overinformativeness",4583,1,"sandalye","chair","first_post"
47,"picture_bw_square",19.8595666666667,"adjective_ordering",4324,1,"tablo","picture","first_post"
48,"table_metal_high",19.8595666666667,"adjective_ordering",4905,1,"masa","table","first_post"
49,"man_old_bearded",19.8595666666667,"adjective_ordering",12386,1,"yaşlı adam","man","first_post"
50,"pants_big_pink",19.8595666666667,"overinformativeness",11555,1,"pantolon","pants","first_post"
51,"ball_big_purple",19.8595666666667,"overinformativeness",4391,1,"top","ball","first_post"
52,"picture_colored_square",19.8595666666667,"adjective_ordering",4731,1,"tablo","picture","first_post"
53,"bag_big_blue",19.8595666666667,"overinformativeness",4933,1,"çanta","bag","first_post"
54,"man_young_bald",19.8595666666667,"adjective_ordering",6758,1,"kel adam","man","first_post"
55,"tshirt_big_yellow",19.8595666666667,"overinformativeness",15340,1,"tişört","tshirt","first_post"
56,"pencil_short_black",19.8595666666667,"adjective_ordering",4294,1,"kalem","pencil","first_post"
57,"shorts_wet_red",19.8595666666667,"adjective_ordering",4869,1,"şort","shorts","first_post"
58,"picture_colored_rectangular",19.8595666666667,"adjective_ordering",4729,1,"tablo","picture","first_post"
59,"box_closed_wood",19.8595666666667,"adjective_ordering",14580,1,"kutu","box","first_post"
60,"rosary_big_yellow",19.8595666666667,"overinformativeness",57146,1,"tespih","rosary","first_post"
61,"spoon_wooden_dirty",19.8595666666667,"adjective_ordering",5289,1,"kaşık","spoon","first_post"
62,"table_wood_high",19.8595666666667,"adjective_ordering",3230,1,"masa","table","first_post"
63,"hair_curly_blonde",19.8595666666667,"adjective_ordering",7158,1,"peruk","hair","first_post"
64,"lock_big_gold",19.8595666666667,"overinformativeness",7834,1,"kilit","lock","first_post"
65,"woman_young_happy",19.8595666666667,"adjective_ordering",16501,1,"kadın","woman","first_post"
66,"earring_big_round",19.8595666666667,"adjective_ordering",7084,1,"küpe","earring","first_post"
67,"pants_big_green",19.8595666666667,"overinformativeness",5159,1,"pantolon","pants","first_post"
68,"bottle_plastic_small",19.8595666666667,"adjective_ordering",5068,1,"şişe","bottle","first_post"
69,"cat_big_black",19.8595666666667,"overinformativeness",4391,1,"kedi","cat","first_post"
70,"flower_big_pink",19.8595666666667,"overinformativeness",7878,1,"çiçek","flower","first_post"
71,"lighter_big_white",19.8595666666667,"overinformativeness",4301,1,"çakmak","lighter","first_post"
72,"pot_big_blue",19.8595666666667,"overinformativeness",4057,1,"tencere","pot","first_post"
73,"shorts_dry_red",19.8595666666667,"adjective_ordering",10229,1,"şort","shorts","first_post"
74,"umbrella_big_blue",19.8595666666667,"overinformativeness",6117,1,"şemsiye","umbrella","first_post"
75,"glasses_big_blue",19.8595666666667,"overinformativeness",11869,1,"gözlük","glasses","first_post"
76,"button_big_green",19.8595666666667,"overinformativeness",7267,1,"düğme","button","first_post"
77,"clock_big_purple",19.8595666666667,"overinformativeness",4833,1,"saat","clock","first_post"
78,"rosary_big_blue",19.8595666666667,"overinformativeness",5758,1,"tespih","rosary","first_post"
79,"pencil_long_black",19.8595666666667,"adjective_ordering",3731,1,"kalem","pencil","first_post"
80,"man_old_bald",19.8595666666667,"adjective_ordering",6631,1,"yaşlı adam","man","first_post"
81,"box_closed_cardboard",19.8595666666667,"adjective_ordering",3902,1,"kutu","box","first_post"
82,"mirror_big_black",19.8595666666667,"overinformativeness",8800,1,"ayna","mirror","first_post"
83,"cat_big_white",19.8595666666667,"overinformativeness",4188,1,"kedi","cat","first_post"
84,"shorts_wet_green",19.8595666666667,"adjective_ordering",3987,1,"şort","shorts","first_post"
85,"binoculars_big_red",19.8595666666667,"overinformativeness",7590,1,"dürbün","binoculars","first_post"
86,"brush_big_red",19.8595666666667,"overinformativeness",7020,1,"fırça","brush","first_post"
87,"hair_straight_brown",19.8595666666667,"adjective_ordering",11943,1,"peruk","hair","first_post"
88,"hat_big_orange",19.8595666666667,"overinformativeness",4401,1,"şapka","hat","first_post"
89,"balloon_big_yellow",19.8595666666667,"overinformativeness",3661,1,"balon","balloon","first_post"
90,"toothbrush_big_green",19.8595666666667,"overinformativeness",10866,1,"diş fırçası","toothbrush","first_post"
91,"umbrella_big_green",19.8595666666667,"overinformativeness",4987,1,"şemsiye","umbrella","first_post"
92,"apple_big_red",19.8595666666667,"overinformativeness",3669,1,"elma","apple","first_post"
93,"knife_big_red",19.8595666666667,"overinformativeness",5121,1,"bıçak","knife","first_post"
94,"socks_big_green",19.8595666666667,"overinformativeness",4891,1,"çorap","socks","first_post"
95,"button_big_blue",19.8595666666667,"overinformativeness",5047,1,"düğme","button","first_post"
96,"table_metal_low",19.8595666666667,"adjective_ordering",2857,1,"masa","table","first_post"
97,"key_big_silver",19.8595666666667,"overinformativeness",5368,1,"anahtar","key","first_post"
98,"glove_big_orange",19.8595666666667,"overinformativeness",5765,1,"eldiven","glove","first_post"
99,"box_open_cardboard",19.8595666666667,"adjective_ordering",3620,1,"kutu","box","first_post"
100,"mirror_big_white",19.8595666666667,"overinformativeness",5219,1,"ayna","mirror","first_post"
101,"cup_full_metal",19.8595666666667,"adjective_ordering",10756,1,"fincan","cup","first_post"
102,"woman_young_sad",19.8595666666667,"adjective_ordering",9161,1,"kadın","woman","first_post"
103,"binoculars_big_blue",19.8595666666667,"overinformativeness",7768,1,"dürbün","binoculars","first_post"
104,"hair_straight_blond",19.8595666666667,"adjective_ordering",7712,1,"peruk","hair","first_post"
105,"spoon_metal_dirty",19.8595666666667,"adjective_ordering",5909,1,"kaşık","spoon","first_post"
106,"tie_big_blue",19.8595666666667,"overinformativeness",46557,1,"kravat","tie","first_post"
107,"tshirt_big_orange",19.8595666666667,"overinformativeness",8673,1,"tişört","tshirt","first_post"
108,"pencil_short_blue",19.8595666666667,"adjective_ordering",4806,1,"kalem","pencil","first_post"
109,"table_wood_low",19.8595666666667,"adjective_ordering",3743,1,"masa","table","first_post"
110,"lock_big_silver",19.8595666666667,"overinformativeness",5112,1,"kilit","lock","first_post"
111,"tie_big_red",19.8595666666667,"overinformativeness",4578,1,"kravat","tie","first_post"
112,"bag_big_red",19.8595666666667,"overinformativeness",4768,1,"çanta","bag","first_post"
113,"clock_big_yellow",19.8595666666667,"overinformativeness",3879,1,"saat","clock","first_post"
114,"apple_big_green",19.8595666666667,"overinformativeness",3524,1,"elma","apple","first_post"
115,"dress_big_blue",19.8595666666667,"overinformativeness",4706,1,"elbise","dress","first_post"
116,"box_open_wood",19.8595666666667,"adjective_ordering",3799,1,"kutu","box","first_post"
117,"cup_empty_glass",19.8595666666667,"adjective_ordering",7303,1,"bardak","cup","first_post"
118,"bottle_glass_small",19.8595666666667,"adjective_ordering",3535,1,"şişe","bottle","first_post"
119,"ball_big_yellow",19.8595666666667,"overinformativeness",4136,1,"top","ball","first_post"
120,"car_big_green",19.8595666666667,"overinformativeness",7714,1,"oyuncak araba","car","first_post"
121,"skirt_big_green",19.8595666666667,"overinformativeness",3778,1,"etek","skirt","first_post"
122,"cup_full_glass",19.8595666666667,"adjective_ordering",4602,1,"bardak","cup","first_post"
1,"",21.4244,"bot_check",0,2,"Selin","Selin","first_post"
3,"shorts_dry_red",21.4244,"adjective_ordering",53578,2,"Shorts","shorts","first_post"
4,"pencil_short_black",21.4244,"adjective_ordering",10305,2,"Pencil","pencil","first_post"
5,"pencil_long_black",21.4244,"adjective_ordering",44048,2,"Pencil","pencil","first_post"
6,"glasses_big_blue",21.4244,"overinformativeness",33846,2,"Specs","glasses","first_post"
7,"picture_bw_square",21.4244,"adjective_ordering",14637,2,"Photo frame","picture","first_post"
8,"man_old_bald",21.4244,"adjective_ordering",44919,2,"Person","man","first_post"
9,"cat_big_white",21.4244,"overinformativeness",9299,2,"Cat","cat","first_post"
10,"earring_big_triangular",21.4244,"adjective_ordering",16364,2,"Earing","earring","first_post"
11,"table_wood_low",21.4244,"adjective_ordering",7357,2,"Rable","table","first_post"
12,"toothbrush_big_green",21.4244,"overinformativeness",5775,2,"
brush","toothbrush","first_post"
13,"shorts_wrinkled_red",21.4244,"adjective_ordering",6575,2,"
shorts","shorts","first_post"
14,"chair_big_blue",21.4244,"overinformativeness",5441,2,"
chair","chair","first_post"
15,"bottle_glass_big",21.4244,"adjective_ordering",5781,2,"
bottle","bottle","first_post"
16,"glasses_big_red",21.4244,"overinformativeness",5692,2,"
specs","glasses","first_post"
17,"rosary_big_blue",21.4244,"overinformativeness",23207,2,"neck chain
chain","rosary","first_post"
18,"table_wood_high",21.4244,"adjective_ordering",5679,2,"
table","table","first_post"
19,"scissors_big_blue",21.4244,"overinformativeness",8624,2,"
scissors","scissors","first_post"
20,"woman_old_sad",21.4244,"adjective_ordering",7479,2,"
sad","woman","first_post"
21,"lipstick_big_pink",21.4244,"overinformativeness",6616,2,"
lipstick","lipstick","first_post"
22,"pencil_long_blue",21.4244,"adjective_ordering",5567,2,"
pencil","pencil","first_post"
23,"table_metal_high",21.4244,"adjective_ordering",6996,2,"
table","table","first_post"
24,"book_big_red",21.4244,"overinformativeness",4935,2,"
book","book","first_post"
25,"car_big_green",21.4244,"overinformativeness",9768,2,"
toy car","car","first_post"
26,"lock_big_gold",21.4244,"overinformativeness",5703,2,"
lock","lock","first_post"
27,"shorts_wet_green",21.4244,"adjective_ordering",6128,2,"
shorts","shorts","first_post"
28,"woman_young_happy",21.4244,"adjective_ordering",7264,2,"
happy","woman","first_post"
29,"shorts_wet_red",21.4244,"adjective_ordering",6975,2,"
shorts","shorts","first_post"
30,"socks_big_blue",21.4244,"overinformativeness",10560,2,"
shocks","socks","first_post"
31,"woman_young_sad",21.4244,"adjective_ordering",6519,2,"
sad","woman","first_post"
32,"ball_big_purple",21.4244,"overinformativeness",3533,2,"
ball","ball","first_post"
33,"chair_big_yellow",21.4244,"overinformativeness",3422,2,"
chair","chair","first_post"
34,"man_young_bald",21.4244,"adjective_ordering",28839,2,"
full shave","man","first_post"
35,"spoon_metal_dirty",21.4244,"adjective_ordering",4408,2,"
spoon","spoon","first_post"
36,"pants_big_green",21.4244,"overinformativeness",4847,2,"
pant","pants","first_post"
37,"tshirt_big_orange",21.4244,"overinformativeness",8511,2,"
T shirt","tshirt","first_post"
38,"bottle_glass_small",21.4244,"adjective_ordering",5112,2,"
bottle","bottle","first_post"
39,"flower_big_yellow",21.4244,"overinformativeness",8787,2,"
Sun flower","flower","first_post"
40,"cup_full_glass",21.4244,"adjective_ordering",3775,2,"
Tea","cup","first_post"
41,"key_big_silver",21.4244,"overinformativeness",3072,2,"
key","key","first_post"
42,"toothbrush_big_purple",21.4244,"overinformativeness",5007,2,"
brush","toothbrush","first_post"
43,"box_open_wood",21.4244,"adjective_ordering",9071,2,"
Wooden box","box","first_post"
44,"knife_big_red",21.4244,"overinformativeness",4775,2,"
Knife","knife","first_post"
45,"rosary_big_yellow",21.4244,"overinformativeness",8414,2,"
Neck chain","rosary","first_post"
46,"scissors_big_green",21.4244,"overinformativeness",7543,2,"
scissors","scissors","first_post"
47,"shoe_big_pink",21.4244,"overinformativeness",5088,2,"
Shoe","shoe","first_post"
48,"cup_full_metal",21.4244,"adjective_ordering",6744,2,"
Coffee","cup","first_post"
49,"shorts_dry_green",21.4244,"adjective_ordering",4887,2,"
shorts","shorts","first_post"
50,"ball_big_yellow",21.4244,"overinformativeness",18332,2,"
ball","ball","first_post"
51,"earring_big_round",21.4244,"adjective_ordering",6462,2,"
earring","earring","first_post"
52,"book_big_blue",21.4244,"overinformativeness",3228,2,"
book","book","first_post"
53,"dress_big_blue",21.4244,"overinformativeness",8682,2,"
dress","dress","first_post"
54,"table_metal_low",21.4244,"adjective_ordering",4200,2,"
table","table","first_post"
55,"glove_big_orange",21.4244,"overinformativeness",6688,2,"
hand glove","glove","first_post"
56,"picture_colored_square",21.4244,"adjective_ordering",8439,2,"
photo frame","picture","first_post"
57,"spoon_wooden_dirty",21.4244,"adjective_ordering",3936,2,"
spoon","spoon","first_post"
58,"lock_big_silver",21.4244,"overinformativeness",5127,2,"
lock","lock","first_post"
59,"shorts_wrinkled_green",21.4244,"adjective_ordering",4960,2,"
shorts","shorts","first_post"
60,"lipstick_big_red",21.4244,"overinformativeness",5736,2,"
lipstick","lipstick","first_post"
61,"box_closed_wood",21.4244,"adjective_ordering",5283,2,"
Wooden box","box","first_post"
62,"pot_big_blue",21.4244,"overinformativeness",8822,2,"
Cooker","pot","first_post"
63,"button_big_blue",21.4244,"overinformativeness",5769,2,"
Button","button","first_post"
64,"earring_small_triangular",21.4244,"adjective_ordering",4776,2,"
Earring","earring","first_post"
65,"brush_big_red",21.4244,"overinformativeness",7550,2,"
Paint brush","brush","first_post"
66,"cup_empty_glass",21.4244,"adjective_ordering",6240,2,"
Glass","cup","first_post"
67,"knife_big_blue",21.4244,"overinformativeness",4726,2,"
Knife","knife","first_post"
68,"man_old_bearded",21.4244,"adjective_ordering",9135,2,"
Beard man","man","first_post"
69,"balloon_big_yellow",21.4244,"overinformativeness",3985,2,"
Ballon","balloon","first_post"
70,"tie_big_blue",21.4244,"overinformativeness",3768,2,"
Tie","tie","first_post"
71,"umbrella_big_green",21.4244,"overinformativeness",6819,2,"
Umbrella","umbrella","first_post"
72,"button_big_green",21.4244,"overinformativeness",4703,2,"
Button","button","first_post"
73,"man_young_bearded",21.4244,"adjective_ordering",6336,2,"
Beard man","man","first_post"
74,"car_big_blue",21.4244,"overinformativeness",10279,2,"toy","car","first_post"
75,"pencil_short_blue",21.4244,"adjective_ordering",4216,2,"
Pencil","pencil","first_post"
76,"dress_big_green",21.4244,"overinformativeness",5295,2,"
Dress","dress","first_post"
77,"skirt_big_blue",21.4244,"overinformativeness",19519,2,"
Scirt","skirt","first_post"
78,"flower_big_pink",21.4244,"overinformativeness",6926,2,"
flower","flower","first_post"
79,"pepper_big_red",21.4244,"overinformativeness",21446,2,"
Red chillie","pepper","first_post"
80,"box_closed_cardboard",21.4244,"adjective_ordering",16531,2,"
Cotton box","box","first_post"
81,"earring_small_round",21.4244,"adjective_ordering",6336,2,"
Earring","earring","first_post"
82,"skirt_big_green",21.4244,"overinformativeness",13815,2,"
scirt","skirt","first_post"
83,"mirror_big_black",21.4244,"overinformativeness",36803,2,"
magnifier","mirror","first_post"
84,"clock_big_yellow",21.4244,"overinformativeness",4663,2,"
clock","clock","first_post"
85,"shoe_big_yellow",21.4244,"overinformativeness",3376,2,"
shoe","shoe","first_post"
86,"bottle_plastic_small",21.4244,"adjective_ordering",5753,2,"
water bottle","bottle","first_post"
87,"lighter_big_white",21.4244,"overinformativeness",6573,2,"
lighter","lighter","first_post"
88,"key_big_gold",21.4244,"overinformativeness",3447,2,"
key","key","first_post"
89,"binoculars_big_red",21.4244,"overinformativeness",9551,2,"
telescope","binoculars","first_post"
90,"umbrella_big_blue",21.4244,"overinformativeness",6155,2,"
umbrella","umbrella","first_post"
91,"pepper_big_green",21.4244,"overinformativeness",36288,2,"
capcicum","pepper","first_post"
92,"brush_big_blue",21.4244,"overinformativeness",7679,2,"
paint brush","brush","first_post"
93,"woman_old_happy",21.4244,"adjective_ordering",11302,2,"
Happy man","woman","first_post"
94,"tshirt_big_yellow",21.4244,"overinformativeness",5672,2,"
T shirt","tshirt","first_post"
95,"tie_big_red",21.4244,"overinformativeness",4583,2,"
Tie","tie","first_post"
96,"mirror_big_white",21.4244,"overinformativeness",7489,2,"
magnifier","mirror","first_post"
97,"clock_big_purple",21.4244,"overinformativeness",4687,2,"
clock","clock","first_post"
98,"hat_big_orange",21.4244,"overinformativeness",4984,2,"
cap","hat","first_post"
99,"hat_big_pink",21.4244,"overinformativeness",4474,2,"
cap","hat","first_post"
100,"pants_big_pink",21.4244,"overinformativeness",4856,2,"
pant","pants","first_post"
101,"picture_bw_rectangular",21.4244,"adjective_ordering",6759,2,"
photo frame","picture","first_post"
102,"pot_big_green",21.4244,"overinformativeness",5088,2,"
cooker","pot","first_post"
103,"hair_curly_blonde",21.4244,"adjective_ordering",6831,2,"
hair","hair","first_post"
104,"box_open_cardboard",21.4244,"adjective_ordering",5258,2,"
cotton box","box","first_post"
105,"bottle_plastic_big",21.4244,"adjective_ordering",5452,2,"
water bottle","bottle","first_post"
106,"socks_big_green",21.4244,"overinformativeness",6818,2,"
socks","socks","first_post"
107,"balloon_big_pink",21.4244,"overinformativeness",7813,2,"
balloon","balloon","first_post"
108,"apple_big_red",21.4244,"overinformativeness",3616,2,"
apple","apple","first_post"
109,"binoculars_big_blue",21.4244,"overinformativeness",7047,2,"
telescope","binoculars","first_post"
110,"picture_colored_rectangular",21.4244,"adjective_ordering",6523,2,"
photo frame","picture","first_post"
111,"lighter_big_black",21.4244,"overinformativeness",5168,2,"
lighter","lighter","first_post"
112,"hair_straight_brown",21.4244,"adjective_ordering",3488,2,"
hair","hair","first_post"
113,"apple_big_green",21.4244,"overinformativeness",3064,2,"
apple","apple","first_post"
114,"cup_empty_metal",21.4244,"adjective_ordering",4007,2,"
cup","cup","first_post"
115,"hair_straight_blond",21.4244,"adjective_ordering",3575,2,"
hair","hair","first_post"
116,"glove_big_green",21.4244,"overinformativeness",5992,2,"
hand glove","glove","first_post"
117,"spoon_metal_clean",21.4244,"adjective_ordering",3527,2,"
spoon","spoon","first_post"
118,"hair_curly_brown",21.4244,"adjective_ordering",3471,2,"
hair","hair","first_post"
119,"spoon_wooden_clean",21.4244,"adjective_ordering",3272,2,"
spoon","spoon","first_post"
120,"cat_big_black",21.4244,"overinformativeness",2613,2,"
cat","cat","first_post"
121,"bag_big_red",21.4244,"overinformativeness",10648,2,"
backpack","bag","first_post"
122,"bag_big_blue",21.4244,"overinformativeness",5477,2,"
backpack","bag","first_post"
1,"",29.5519833333333,"bot_check",0,3,"Ceren'e","Ceren","first_post"
1,"",29.5519833333333,"bot_check",0,3,"Ceren'e","Ceren","first_post"
1,"",29.5519833333333,"bot_check",0,3,"Ceren","Ceren","first_post"
3,"table_metal_low",29.5519833333333,"adjective_ordering",37900,3,"tablo","table","first_post"
4,"cup_empty_metal",29.5519833333333,"adjective_ordering",20199,3,"Fincan","cup","first_post"
5,"pepper_big_red",29.5519833333333,"overinformativeness",13669,3,"kabak","pepper","first_post"
6,"glove_big_green",29.5519833333333,"overinformativeness",14070,3,"eldiven","glove","first_post"
7,"button_big_blue",29.5519833333333,"overinformativeness",13190,3,"buton","button","first_post"
8,"flower_big_yellow",29.5519833333333,"overinformativeness",125418,3,"
çiçek","flower","first_post"
9,"apple_big_green",29.5519833333333,"overinformativeness",11992,3,"elma","apple","first_post"
10,"cup_empty_glass",29.5519833333333,"adjective_ordering",16372,3,"cam bardak","cup","first_post"
11,"scissors_big_green",29.5519833333333,"overinformativeness",75862,3,"makasla kesmek","scissors","first_post"
12,"toothbrush_big_green",29.5519833333333,"overinformativeness",10685,3,"fırça","toothbrush","first_post"
13,"box_open_wood",29.5519833333333,"adjective_ordering",12921,3,"
Kutu","box","first_post"
14,"bottle_glass_small",29.5519833333333,"adjective_ordering",34604,3,"cam şişe
","bottle","first_post"
15,"dress_big_blue",29.5519833333333,"overinformativeness",17315,3,"elbise","dress","first_post"
16,"picture_bw_square",29.5519833333333,"adjective_ordering",10720,3,"çerçeve","picture","first_post"
17,"cup_full_glass",29.5519833333333,"adjective_ordering",31720,3,"fincandaki meyve suyu
","cup","first_post"
18,"man_young_bearded",29.5519833333333,"adjective_ordering",16680,3,"
adam","man","first_post"
19,"brush_big_red",29.5519833333333,"overinformativeness",20362,3,"boya fırçası","brush","first_post"
20,"clock_big_yellow",29.5519833333333,"overinformativeness",9048,3,"saat","clock","first_post"
21,"earring_big_triangular",29.5519833333333,"adjective_ordering",10024,3,"yer","earring","first_post"
22,"spoon_wooden_clean",29.5519833333333,"adjective_ordering",11248,3,"kaşık","spoon","first_post"
23,"hair_straight_brown",29.5519833333333,"adjective_ordering",9278,3,"saç","hair","first_post"
24,"shorts_wet_green",29.5519833333333,"adjective_ordering",60401,3,"
pantolon","shorts","first_post"
25,"knife_big_red",29.5519833333333,"overinformativeness",33697,3,"bıçak","knife","first_post"
26,"lock_big_silver",29.5519833333333,"overinformativeness",9663,3,"kilit","lock","first_post"
27,"pencil_short_blue",29.5519833333333,"adjective_ordering",12610,3,"Renkli kalem","pencil","first_post"
28,"glasses_big_blue",29.5519833333333,"overinformativeness",9989,3,"bardak","glasses","first_post"
29,"car_big_blue",29.5519833333333,"overinformativeness",12514,3,"oyuncak araba","car","first_post"
30,"key_big_gold",29.5519833333333,"overinformativeness",8201,3,"anahtar","key","first_post"
31,"woman_old_sad",29.5519833333333,"adjective_ordering",13809,3,"yaşlı kadın","woman","first_post"
32,"picture_colored_rectangular",29.5519833333333,"adjective_ordering",16676,3,"çerçeve","picture","first_post"
33,"chair_big_blue",29.5519833333333,"overinformativeness",8923,3,"sandalye","chair","first_post"
34,"lighter_big_black",29.5519833333333,"overinformativeness",10048,3,"çakmak","lighter","first_post"
35,"bag_big_blue",29.5519833333333,"overinformativeness",8942,3,"sırt çantası","bag","first_post"
36,"clock_big_purple",29.5519833333333,"overinformativeness",11176,3,"saat","clock","first_post"
37,"pencil_long_black",29.5519833333333,"adjective_ordering",10230,3,"
kalem","pencil","first_post"
38,"table_wood_low",29.5519833333333,"adjective_ordering",7394,3,"tablo","table","first_post"
39,"lipstick_big_red",29.5519833333333,"overinformativeness",10682,3,"ruj","lipstick","first_post"
40,"box_closed_wood",29.5519833333333,"adjective_ordering",10255,3,"Kutu","box","first_post"
41,"earring_big_round",29.5519833333333,"adjective_ordering",10280,3,"yer","earring","first_post"
42,"tshirt_big_orange",29.5519833333333,"overinformativeness",10280,3,"gömlek","tshirt","first_post"
43,"cup_full_metal",29.5519833333333,"adjective_ordering",38313,3,"Fincan","cup","first_post"
44,"table_wood_high",29.5519833333333,"adjective_ordering",8197,3,"tablo","table","first_post"
45,"pencil_long_blue",29.5519833333333,"adjective_ordering",9200,3,"kalem","pencil","first_post"
46,"woman_old_happy",29.5519833333333,"adjective_ordering",11890,3,"yaşlı kadın","woman","first_post"
47,"pepper_big_green",29.5519833333333,"overinformativeness",12465,3,"kabak","pepper","first_post"
48,"ball_big_yellow",29.5519833333333,"overinformativeness",8599,3,"top","ball","first_post"
49,"skirt_big_blue",29.5519833333333,"overinformativeness",9216,3,"etek","skirt","first_post"
50,"shoe_big_pink",29.5519833333333,"overinformativeness",6310,3,"ayakkabı","shoe","first_post"
51,"man_old_bearded",29.5519833333333,"adjective_ordering",10234,3,"yaşlı adam","man","first_post"
52,"shorts_wet_red",29.5519833333333,"adjective_ordering",34206,3,"pantolon","shorts","first_post"
53,"button_big_green",29.5519833333333,"overinformativeness",8411,3,"buton","button","first_post"
54,"mirror_big_white",29.5519833333333,"overinformativeness",12959,3,"el aynası","mirror","first_post"
55,"pants_big_green",29.5519833333333,"overinformativeness",6990,3,"solumak","pants","first_post"
56,"scissors_big_blue",29.5519833333333,"overinformativeness",7994,3,"makasla kesmek","scissors","first_post"
57,"dress_big_green",29.5519833333333,"overinformativeness",9256,3,"elbise","dress","first_post"
58,"bottle_plastic_small",29.5519833333333,"adjective_ordering",12390,3,"su şişesi
","bottle","first_post"
59,"glasses_big_red",29.5519833333333,"overinformativeness",10034,3,"gözlük","glasses","first_post"
60,"glove_big_orange",29.5519833333333,"overinformativeness",9686,3,"eldiven","glove","first_post"
61,"rosary_big_blue",29.5519833333333,"overinformativeness",12770,3,"Braclet","rosary","first_post"
62,"balloon_big_yellow",29.5519833333333,"overinformativeness",8081,3,"balon","balloon","first_post"
63,"shorts_dry_red",29.5519833333333,"adjective_ordering",7278,3,"platoon","shorts","first_post"
64,"mirror_big_black",29.5519833333333,"overinformativeness",12841,3,"
el aynası
","mirror","first_post"
65,"balloon_big_pink",29.5519833333333,"overinformativeness",6950,3,"balon","balloon","first_post"
66,"binoculars_big_red",29.5519833333333,"overinformativeness",11010,3,"dürbün","binoculars","first_post"
67,"rosary_big_yellow",29.5519833333333,"overinformativeness",10430,3,"bilezik","rosary","first_post"
68,"flower_big_pink",29.5519833333333,"overinformativeness",8000,3,"çiçek","flower","first_post"
69,"hair_curly_brown",29.5519833333333,"adjective_ordering",11639,3,"Kıvırcık saç
","hair","first_post"
70,"car_big_green",29.5519833333333,"overinformativeness",15081,3,"oyuncak araba","car","first_post"
71,"spoon_wooden_dirty",29.5519833333333,"adjective_ordering",19200,3,"kaşık","spoon","first_post"
72,"socks_big_blue",29.5519833333333,"overinformativeness",7652,3,"çorap","socks","first_post"
73,"pot_big_green",29.5519833333333,"overinformativeness",12982,3,"kap","pot","first_post"
74,"shoe_big_yellow",29.5519833333333,"overinformativeness",6696,3,"ayakkabı","shoe","first_post"
75,"hat_big_pink",29.5519833333333,"overinformativeness",18704,3,"şapka","hat","first_post"
76,"book_big_red",29.5519833333333,"overinformativeness",8528,3,"kitap","book","first_post"
77,"umbrella_big_blue",29.5519833333333,"overinformativeness",20041,3,"şemsiye","umbrella","first_post"
78,"bottle_glass_big",29.5519833333333,"adjective_ordering",11078,3,"cam şişe
","bottle","first_post"
79,"shorts_dry_green",29.5519833333333,"adjective_ordering",6477,3,"platoon","shorts","first_post"
80,"tie_big_red",29.5519833333333,"overinformativeness",8440,3,"
kravat","tie","first_post"
81,"table_metal_high",29.5519833333333,"adjective_ordering",5999,3,"tablo","table","first_post"
82,"hat_big_orange",29.5519833333333,"overinformativeness",4035,3,"
kap","hat","first_post"
83,"key_big_silver",29.5519833333333,"overinformativeness",9441,3,"
anahtar","key","first_post"
84,"woman_young_happy",29.5519833333333,"adjective_ordering",7679,3,"Kadın","woman","first_post"
85,"box_closed_cardboard",29.5519833333333,"adjective_ordering",7766,3,"Kutu","box","first_post"
86,"umbrella_big_green",29.5519833333333,"overinformativeness",12130,3,"şemsiye","umbrella","first_post"
87,"toothbrush_big_purple",29.5519833333333,"overinformativeness",10104,3,"diş fırçası","toothbrush","first_post"
88,"earring_small_triangular",29.5519833333333,"adjective_ordering",6735,3,"yer","earring","first_post"
89,"chair_big_yellow",29.5519833333333,"overinformativeness",6110,3,"sandalye","chair","first_post"
90,"hair_straight_blond",29.5519833333333,"adjective_ordering",11634,3,"saç","hair","first_post"
91,"knife_big_blue",29.5519833333333,"overinformativeness",7445,3,"bıçak","knife","first_post"
92,"pot_big_blue",29.5519833333333,"overinformativeness",10480,3,"kap","pot","first_post"
93,"woman_young_sad",29.5519833333333,"adjective_ordering",17577,3,"üzgün kadın
","woman","first_post"
94,"skirt_big_green",29.5519833333333,"overinformativeness",16423,3,"etek","skirt","first_post"
95,"tshirt_big_yellow",29.5519833333333,"overinformativeness",7640,3,"gömlek","tshirt","first_post"
96,"shorts_wrinkled_green",29.5519833333333,"adjective_ordering",9119,3,"platoon","shorts","first_post"
97,"lighter_big_white",29.5519833333333,"overinformativeness",8354,3,"
çakmak","lighter","first_post"
98,"lipstick_big_pink",29.5519833333333,"overinformativeness",8726,3,"ruj","lipstick","first_post"
99,"box_open_cardboard",29.5519833333333,"adjective_ordering",5633,3,"Kutu","box","first_post"
100,"spoon_metal_clean",29.5519833333333,"adjective_ordering",6686,3,"kaşık","spoon","first_post"
101,"ball_big_purple",29.5519833333333,"overinformativeness",8960,3,"top","ball","first_post"
102,"brush_big_blue",29.5519833333333,"overinformativeness",9440,3,"
boya fırçası","brush","first_post"
103,"binoculars_big_blue",29.5519833333333,"overinformativeness",10275,3,"dürbün","binoculars","first_post"
104,"hair_curly_blonde",29.5519833333333,"adjective_ordering",7207,3,"
saç","hair","first_post"
105,"earring_small_round",29.5519833333333,"adjective_ordering",7648,3,"yer","earring","first_post"
106,"book_big_blue",29.5519833333333,"overinformativeness",5960,3,"kitap","book","first_post"
107,"man_young_bald",29.5519833333333,"adjective_ordering",12672,3,"yakında bir
","man","first_post"
108,"pants_big_pink",29.5519833333333,"overinformativeness",6714,3,"solumak","pants","first_post"
109,"bag_big_red",29.5519833333333,"overinformativeness",6958,3,"sırt çantası","bag","first_post"
110,"picture_colored_square",29.5519833333333,"adjective_ordering",6646,3,"çerçeve","picture","first_post"
111,"apple_big_red",29.5519833333333,"overinformativeness",5613,3,"elma","apple","first_post"
112,"pencil_short_black",29.5519833333333,"adjective_ordering",7421,3,"kalem","pencil","first_post"
113,"socks_big_green",29.5519833333333,"overinformativeness",10479,3,"çorap","socks","first_post"
114,"cat_big_black",29.5519833333333,"overinformativeness",6376,3,"kedi","cat","first_post"
115,"spoon_metal_dirty",29.5519833333333,"adjective_ordering",12560,3,"kaşık","spoon","first_post"
116,"man_old_bald",29.5519833333333,"adjective_ordering",8384,3,"yaşlı adam","man","first_post"
117,"bottle_plastic_big",29.5519833333333,"adjective_ordering",24246,3,"su şişesi","bottle","first_post"
118,"tie_big_blue",29.5519833333333,"overinformativeness",6920,3,"kravat","tie","first_post"
119,"lock_big_gold",29.5519833333333,"overinformativeness",6319,3,"anahtar","lock","first_post"
120,"cat_big_white",29.5519833333333,"overinformativeness",6491,3,"kedi","cat","first_post"
121,"picture_bw_rectangular",29.5519833333333,"adjective_ordering",6919,3,"çerçeve","picture","first_post"
122,"shorts_wrinkled_red",29.5519833333333,"adjective_ordering",6869,3,"platoon","shorts","first_post"
1,"",25.9125833333333,"bot_check",0,4,"Deniz","Deniz","first_post"
3,"car_big_blue",25.9125833333333,"overinformativeness",6797,4,"car","car","first_post"
4,"pants_big_green",25.9125833333333,"overinformativeness",4759,4,"pant","pants","first_post"
5,"scissors_big_blue",25.9125833333333,"overinformativeness",5054,4,"scissor","scissors","first_post"
6,"pencil_short_blue",25.9125833333333,"adjective_ordering",5858,4,"pencil","pencil","first_post"
7,"bag_big_red",25.9125833333333,"overinformativeness",4592,4,"bag","bag","first_post"
8,"dress_big_blue",25.9125833333333,"overinformativeness",5253,4,"frock","dress","first_post"
9,"table_metal_high",25.9125833333333,"adjective_ordering",8291,4,"table","table","first_post"
10,"table_wood_low",25.9125833333333,"adjective_ordering",9277,4,"bench","table","first_post"
11,"shorts_wet_red",25.9125833333333,"adjective_ordering",5105,4,"shots","shorts","first_post"
12,"mirror_big_white",25.9125833333333,"overinformativeness",9643,4,"opener","mirror","first_post"
13,"apple_big_red",25.9125833333333,"overinformativeness",4583,4,"apple","apple","first_post"
14,"balloon_big_pink",25.9125833333333,"overinformativeness",5652,4,"balloon","balloon","first_post"
15,"rosary_big_blue",25.9125833333333,"overinformativeness",10513,4,"chain","rosary","first_post"
16,"toothbrush_big_green",25.9125833333333,"overinformativeness",6249,4,"toothbrush","toothbrush","first_post"
17,"bag_big_blue",25.9125833333333,"overinformativeness",3937,4,"bag","bag","first_post"
18,"spoon_wooden_clean",25.9125833333333,"adjective_ordering",5163,4,"spoon","spoon","first_post"
19,"earring_big_round",25.9125833333333,"adjective_ordering",10189,4,"ear drops","earring","first_post"
20,"pants_big_pink",25.9125833333333,"overinformativeness",4727,4,"pant","pants","first_post"
21,"cup_empty_metal",25.9125833333333,"adjective_ordering",4981,4,"cup","cup","first_post"
22,"tie_big_red",25.9125833333333,"overinformativeness",5374,4,"tie","tie","first_post"
23,"socks_big_blue",25.9125833333333,"overinformativeness",4385,4,"socks","socks","first_post"
24,"hair_curly_brown",25.9125833333333,"adjective_ordering",5852,4,"hair","hair","first_post"
25,"brush_big_blue",25.9125833333333,"overinformativeness",6481,4,"paintbrush","brush","first_post"
26,"umbrella_big_blue",25.9125833333333,"overinformativeness",5442,4,"umbrella","umbrella","first_post"
27,"clock_big_yellow",25.9125833333333,"overinformativeness",10403,4,"time piece","clock","first_post"
28,"toothbrush_big_purple",25.9125833333333,"overinformativeness",5716,4,"tooth brush","toothbrush","first_post"
29,"knife_big_blue",25.9125833333333,"overinformativeness",6034,4,"scissor","knife","first_post"
30,"table_metal_low",25.9125833333333,"adjective_ordering",4220,4,"table","table","first_post"
31,"tshirt_big_orange",25.9125833333333,"overinformativeness",5907,4,"t shirt","tshirt","first_post"
32,"spoon_metal_dirty",25.9125833333333,"adjective_ordering",6835,4,"spoon","spoon","first_post"
33,"shorts_dry_red",25.9125833333333,"adjective_ordering",4411,4,"shots","shorts","first_post"
34,"hair_curly_blonde",25.9125833333333,"adjective_ordering",5694,4,"curling hair","hair","first_post"
35,"shorts_wrinkled_red",25.9125833333333,"adjective_ordering",4900,4,"shots","shorts","first_post"
36,"man_young_bald",25.9125833333333,"adjective_ordering",6203,4,"human","man","first_post"
37,"tie_big_blue",25.9125833333333,"overinformativeness",4018,4,"tie","tie","first_post"
38,"box_closed_cardboard",25.9125833333333,"adjective_ordering",4257,4,"box","box","first_post"
39,"dress_big_green",25.9125833333333,"overinformativeness",16348,4,"frog","dress","first_post"
40,"tshirt_big_yellow",25.9125833333333,"overinformativeness",9742,4,"T-Shirt","tshirt","first_post"
41,"hair_straight_blond",25.9125833333333,"adjective_ordering",7475,4,"Hair","hair","first_post"
42,"lock_big_silver",25.9125833333333,"overinformativeness",5728,4,"Lock","lock","first_post"
43,"rosary_big_yellow",25.9125833333333,"overinformativeness",9230,4,"Chain","rosary","first_post"
44,"woman_young_happy",25.9125833333333,"adjective_ordering",17067,4,"Smiling face","woman","first_post"
45,"spoon_wooden_dirty",25.9125833333333,"adjective_ordering",11064,4,"Spoon","spoon","first_post"
46,"chair_big_blue",25.9125833333333,"overinformativeness",6385,4,"Chair","chair","first_post"
47,"pencil_long_blue",25.9125833333333,"adjective_ordering",6136,4,"Pencil","pencil","first_post"
48,"apple_big_green",25.9125833333333,"overinformativeness",7918,4,"Green apple","apple","first_post"
49,"pencil_short_black",25.9125833333333,"adjective_ordering",13378,4,"Pencile","pencil","first_post"
50,"earring_big_triangular",25.9125833333333,"adjective_ordering",8583,4,"ear rings","earring","first_post"
51,"shorts_dry_green",25.9125833333333,"adjective_ordering",7895,4,"Trousers","shorts","first_post"
52,"bottle_plastic_small",25.9125833333333,"adjective_ordering",5553,4,"Bottle","bottle","first_post"
53,"lighter_big_black",25.9125833333333,"overinformativeness",11372,4,"Lightier","lighter","first_post"
54,"chair_big_yellow",25.9125833333333,"overinformativeness",9156,4,"Chair","chair","first_post"
55,"umbrella_big_green",25.9125833333333,"overinformativeness",35481,4,"Umber la ","umbrella","first_post"
56,"car_big_green",25.9125833333333,"overinformativeness",5692,4,"Car","car","first_post"
57,"pot_big_green",25.9125833333333,"overinformativeness",9910,4,"cookware","pot","first_post"
58,"earring_small_triangular",25.9125833333333,"adjective_ordering",7624,4,"ear rings","earring","first_post"
59,"earring_small_round",25.9125833333333,"adjective_ordering",6643,4,"ear rings","earring","first_post"
60,"balloon_big_yellow",25.9125833333333,"overinformativeness",11405,4,"balloon ","balloon","first_post"
61,"pepper_big_green",25.9125833333333,"overinformativeness",11228,4,"Capsicum ","pepper","first_post"
62,"button_big_blue",25.9125833333333,"overinformativeness",7014,4,"Button ","button","first_post"
63,"bottle_plastic_big",25.9125833333333,"adjective_ordering",6406,4,"Bottle ","bottle","first_post"
64,"flower_big_yellow",25.9125833333333,"overinformativeness",11111,4,"Flower ","flower","first_post"
65,"hat_big_pink",25.9125833333333,"overinformativeness",5088,4,"Cap ","hat","first_post"
66,"button_big_green",25.9125833333333,"overinformativeness",5837,4,"Button ","button","first_post"
67,"bottle_glass_small",25.9125833333333,"adjective_ordering",10743,4,"Glass Bottle ","bottle","first_post"
68,"glasses_big_blue",25.9125833333333,"overinformativeness",5959,4,"Specs ","glasses","first_post"
69,"man_old_bald",25.9125833333333,"adjective_ordering",8820,4,"Grandfather ","man","first_post"
70,"glove_big_green",25.9125833333333,"overinformativeness",16121,4,"Gloves ","glove","first_post"
71,"picture_bw_square",25.9125833333333,"adjective_ordering",6447,4,"Frame ","picture","first_post"
72,"lighter_big_white",25.9125833333333,"overinformativeness",6870,4,"Lighter","lighter","first_post"
73,"pepper_big_red",25.9125833333333,"overinformativeness",9721,4,"Capsicum ","pepper","first_post"
74,"spoon_metal_clean",25.9125833333333,"adjective_ordering",5263,4,"Spoon ","spoon","first_post"
75,"cup_full_glass",25.9125833333333,"adjective_ordering",4608,4,"Tea ","cup","first_post"
76,"woman_old_happy",25.9125833333333,"adjective_ordering",8334,4,"Grandmother","woman","first_post"
77,"flower_big_pink",25.9125833333333,"overinformativeness",5738,4,"Flower ","flower","first_post"
78,"man_old_bearded",25.9125833333333,"adjective_ordering",6247,4,"Grandfather ","man","first_post"
79,"pencil_long_black",25.9125833333333,"adjective_ordering",6398,4,"Pencile ","pencil","first_post"
80,"ball_big_yellow",25.9125833333333,"overinformativeness",5712,4,"Ball","ball","first_post"
81,"key_big_gold",25.9125833333333,"overinformativeness",5686,4,"Key ","key","first_post"
82,"picture_colored_rectangular",25.9125833333333,"adjective_ordering",4967,4,"Frame ","picture","first_post"
83,"key_big_silver",25.9125833333333,"overinformativeness",5650,4,"Key ","key","first_post"
84,"clock_big_purple",25.9125833333333,"overinformativeness",7955,4,"Alam clock ","clock","first_post"
85,"shoe_big_pink",25.9125833333333,"overinformativeness",5247,4,"Shoo ","shoe","first_post"
86,"ball_big_purple",25.9125833333333,"overinformativeness",5444,4,"Ball","ball","first_post"
87,"lock_big_gold",25.9125833333333,"overinformativeness",5212,4,"Lock ","lock","first_post"
88,"scissors_big_green",25.9125833333333,"overinformativeness",88388,4,"scissor","scissors","first_post"
89,"shoe_big_yellow",25.9125833333333,"overinformativeness",7525,4,"Shoo","shoe","first_post"
90,"woman_old_sad",25.9125833333333,"adjective_ordering",14326,4,"Human face","woman","first_post"
91,"brush_big_red",25.9125833333333,"overinformativeness",6230,4,"Brush","brush","first_post"
92,"glove_big_orange",25.9125833333333,"overinformativeness",5129,4,"Glove","glove","first_post"
93,"knife_big_red",25.9125833333333,"overinformativeness",5749,4,"Knife ","knife","first_post"
94,"book_big_red",25.9125833333333,"overinformativeness",4462,4,"Book","book","first_post"
95,"skirt_big_blue",25.9125833333333,"overinformativeness",7516,4,"Froge","skirt","first_post"
96,"box_open_wood",25.9125833333333,"adjective_ordering",12111,4,"Woden box","box","first_post"
97,"cat_big_white",25.9125833333333,"overinformativeness",4191,4,"cat","cat","first_post"
98,"binoculars_big_blue",25.9125833333333,"overinformativeness",11743,4,"telescope","binoculars","first_post"
99,"shorts_wrinkled_green",25.9125833333333,"adjective_ordering",6177,4,"Trouser","shorts","first_post"
100,"cup_full_metal",25.9125833333333,"adjective_ordering",7641,4,"Mug","cup","first_post"
101,"box_open_cardboard",25.9125833333333,"adjective_ordering",7304,4,"cartoon box","box","first_post"
102,"pot_big_blue",25.9125833333333,"overinformativeness",8580,4,"Vesicles ","pot","first_post"
103,"lipstick_big_pink",25.9125833333333,"overinformativeness",17516,4,"lipstick ","lipstick","first_post"
104,"table_wood_high",25.9125833333333,"adjective_ordering",10315,4,"table","table","first_post"
105,"hat_big_orange",25.9125833333333,"overinformativeness",5185,4,"hat","hat","first_post"
106,"shorts_wet_green",25.9125833333333,"adjective_ordering",118416,4,"shots","shorts","first_post"
107,"book_big_blue",25.9125833333333,"overinformativeness",5793,4,"book","book","first_post"
108,"hair_straight_brown",25.9125833333333,"adjective_ordering",3947,4,"hair","hair","first_post"
109,"socks_big_green",25.9125833333333,"overinformativeness",5294,4,"socks","socks","first_post"
110,"binoculars_big_red",25.9125833333333,"overinformativeness",8562,4,"binacular","binoculars","first_post"
111,"woman_young_sad",25.9125833333333,"adjective_ordering",30742,4,"human face","woman","first_post"
112,"mirror_big_black",25.9125833333333,"overinformativeness",55588,4,"bottle opener","mirror","first_post"
113,"glasses_big_red",25.9125833333333,"overinformativeness",10221,4,"spectacle","glasses","first_post"
114,"cup_empty_glass",25.9125833333333,"adjective_ordering",113326,4,"glass","cup","first_post"
115,"skirt_big_green",25.9125833333333,"overinformativeness",7350,4,"skirt","skirt","first_post"
116,"man_young_bearded",25.9125833333333,"adjective_ordering",14613,4,"human face","man","first_post"
117,"picture_colored_square",25.9125833333333,"adjective_ordering",9436,4,"photo frame","picture","first_post"
118,"picture_bw_rectangular",25.9125833333333,"adjective_ordering",10810,4,"photo frame","picture","first_post"
119,"cat_big_black",25.9125833333333,"overinformativeness",27090,4,"black cat","cat","first_post"
120,"bottle_glass_big",25.9125833333333,"adjective_ordering",5480,4,"bottle","bottle","first_post"
121,"box_closed_wood",25.9125833333333,"adjective_ordering",4273,4,"box","box","first_post"
122,"lipstick_big_red",25.9125833333333,"overinformativeness",5946,4,"lipstick","lipstick","first_post"
1,"",26.72445,"bot_check",0,5,"Melis","Melis","first_post"
3,"umbrella_big_green",26.72445,"overinformativeness",24835,5,"Umbrella","umbrella","first_post"
4,"picture_colored_rectangular",26.72445,"adjective_ordering",22681,5,"Frame","picture","first_post"
5,"hair_straight_blond",26.72445,"adjective_ordering",12248,5,"Grey hair","hair","first_post"
6,"lipstick_big_red",26.72445,"overinformativeness",9032,5,"Lipstick","lipstick","first_post"
7,"lock_big_gold",26.72445,"overinformativeness",53095,5,"Lock","lock","first_post"
8,"binoculars_big_red",26.72445,"overinformativeness",49592,5,"binocular","binoculars","first_post"
9,"flower_big_yellow",26.72445,"overinformativeness",7475,5,"Flower","flower","first_post"
10,"table_metal_low",26.72445,"adjective_ordering",10373,5,"Table","table","first_post"
11,"glove_big_green",26.72445,"overinformativeness",11116,5,"Green hand","glove","first_post"
12,"tshirt_big_orange",26.72445,"overinformativeness",31168,5,"T-Shirt","tshirt","first_post"
13,"earring_big_round",26.72445,"adjective_ordering",10764,5,"Ear ring","earring","first_post"
14,"pants_big_green",26.72445,"overinformativeness",14312,5,"Green jean","pants","first_post"
15,"key_big_silver",26.72445,"overinformativeness",6188,5,"Key","key","first_post"
16,"box_open_cardboard",26.72445,"adjective_ordering",6676,5,"Box","box","first_post"
17,"table_wood_low",26.72445,"adjective_ordering",8379,5,"Table","table","first_post"
18,"shoe_big_pink",26.72445,"overinformativeness",7268,5,"Shoe","shoe","first_post"
19,"hair_straight_brown",26.72445,"adjective_ordering",5007,5,"Hair","hair","first_post"
20,"brush_big_red",26.72445,"overinformativeness",6253,5,"Brush","brush","first_post"
21,"glove_big_orange",26.72445,"overinformativeness",8736,5,"Hand","glove","first_post"
22,"socks_big_green",26.72445,"overinformativeness",9288,5,"Socks","socks","first_post"
23,"bottle_glass_big",26.72445,"adjective_ordering",9152,5,"Bottle","bottle","first_post"
24,"clock_big_yellow",26.72445,"overinformativeness",40324,5,"clock","clock","first_post"
25,"car_big_green",26.72445,"overinformativeness",8208,5,"Car","car","first_post"
26,"cup_empty_metal",26.72445,"adjective_ordering",7148,5,"Cup","cup","first_post"
27,"man_young_bearded",26.72445,"adjective_ordering",6388,5,"Face","man","first_post"
28,"woman_young_happy",26.72445,"adjective_ordering",10084,5,"women","woman","first_post"
29,"pencil_long_black",26.72445,"adjective_ordering",6112,5,"Pencil","pencil","first_post"
30,"rosary_big_blue",26.72445,"overinformativeness",7808,5,"Chain","rosary","first_post"
31,"brush_big_blue",26.72445,"overinformativeness",6096,5,"Brush","brush","first_post"
32,"shorts_wrinkled_green",26.72445,"adjective_ordering",8559,5,"Shorts","shorts","first_post"
33,"lighter_big_black",26.72445,"overinformativeness",7769,5,"Lighter","lighter","first_post"
34,"shorts_wet_red",26.72445,"adjective_ordering",16820,5,"Shorts","shorts","first_post"
35,"pepper_big_red",26.72445,"overinformativeness",11052,5,"Tomato","pepper","first_post"
36,"knife_big_red",26.72445,"overinformativeness",6920,5,"Knife","knife","first_post"
37,"button_big_green",26.72445,"overinformativeness",7924,5,"Button","button","first_post"
38,"skirt_big_blue",26.72445,"overinformativeness",9380,5,"Skirt","skirt","first_post"
39,"clock_big_purple",26.72445,"overinformativeness",12832,5,"Clock","clock","first_post"
40,"glasses_big_blue",26.72445,"overinformativeness",8733,5,"Glass","glasses","first_post"
41,"mirror_big_white",26.72445,"overinformativeness",31531,5,"Hand Mirror","mirror","first_post"
42,"man_old_bald",26.72445,"adjective_ordering",6668,5,"Man","man","first_post"
43,"balloon_big_yellow",26.72445,"overinformativeness",42144,5,"Ballon","balloon","first_post"
44,"dress_big_blue",26.72445,"overinformativeness",6188,5,"Top","dress","first_post"
45,"spoon_metal_dirty",26.72445,"adjective_ordering",5800,5,"Spoon","spoon","first_post"
46,"umbrella_big_blue",26.72445,"overinformativeness",9392,5,"Umbrella","umbrella","first_post"
47,"earring_big_triangular",26.72445,"adjective_ordering",7144,5,"Earring","earring","first_post"
48,"spoon_wooden_clean",26.72445,"adjective_ordering",5368,5,"Spoon","spoon","first_post"
49,"socks_big_blue",26.72445,"overinformativeness",7124,5,"Socks","socks","first_post"
50,"dress_big_green",26.72445,"overinformativeness",7787,5,"Top","dress","first_post"
51,"cup_full_glass",26.72445,"adjective_ordering",6452,5,"Tea","cup","first_post"
52,"binoculars_big_blue",26.72445,"overinformativeness",14239,5,"Binocular","binoculars","first_post"
53,"skirt_big_green",26.72445,"overinformativeness",7288,5,"Skirt","skirt","first_post"
54,"cup_full_metal",26.72445,"adjective_ordering",12572,5,"Tea","cup","first_post"
55,"earring_small_triangular",26.72445,"adjective_ordering",8856,5,"Earring","earring","first_post"
56,"hair_curly_brown",26.72445,"adjective_ordering",10932,5,"Hair","hair","first_post"
57,"ball_big_yellow",26.72445,"overinformativeness",5624,5,"Ball","ball","first_post"
58,"pencil_short_blue",26.72445,"adjective_ordering",6028,5,"Pencil","pencil","first_post"
59,"earring_small_round",26.72445,"adjective_ordering",11184,5,"Earring","earring","first_post"
60,"box_open_wood",26.72445,"adjective_ordering",4760,5,"Box","box","first_post"
61,"pot_big_green",26.72445,"overinformativeness",8304,5,"Cooker","pot","first_post"
62,"pencil_short_black",26.72445,"adjective_ordering",5612,5,"Pencil","pencil","first_post"
63,"car_big_blue",26.72445,"overinformativeness",7004,5,"Car","car","first_post"
64,"shorts_wrinkled_red",26.72445,"adjective_ordering",12915,5,"Shorts","shorts","first_post"
65,"pants_big_pink",26.72445,"overinformativeness",6348,5,"Jeans","pants","first_post"
66,"hat_big_orange",26.72445,"overinformativeness",6076,5,"Hat","hat","first_post"
67,"hat_big_pink",26.72445,"overinformativeness",5688,5,"Hat","hat","first_post"
68,"key_big_gold",26.72445,"overinformativeness",8408,5,"Key","key","first_post"
69,"picture_bw_square",26.72445,"adjective_ordering",7179,5,"Frame","picture","first_post"
70,"lock_big_silver",26.72445,"overinformativeness",5520,5,"Lock","lock","first_post"
71,"tie_big_red",26.72445,"overinformativeness",5088,5,"Tie","tie","first_post"
72,"cat_big_white",26.72445,"overinformativeness",4464,5,"Cat","cat","first_post"
73,"shorts_wet_green",26.72445,"adjective_ordering",7976,5,"Shorts","shorts","first_post"
74,"toothbrush_big_purple",26.72445,"overinformativeness",8036,5,"Brush","toothbrush","first_post"
75,"table_wood_high",26.72445,"adjective_ordering",13313,5,"Table","table","first_post"
76,"scissors_big_blue",26.72445,"overinformativeness",10275,5,"Scissors","scissors","first_post"
77,"tie_big_blue",26.72445,"overinformativeness",5096,5,"Tie","tie","first_post"
78,"knife_big_blue",26.72445,"overinformativeness",8744,5,"Knife","knife","first_post"
79,"shoe_big_yellow",26.72445,"overinformativeness",5424,5,"Shoe","shoe","first_post"
80,"spoon_metal_clean",26.72445,"adjective_ordering",5448,5,"Spoon","spoon","first_post"
81,"hair_curly_blonde",26.72445,"adjective_ordering",7919,5,"Hair","hair","first_post"
82,"pot_big_blue",26.72445,"overinformativeness",6280,5,"Cooker","pot","first_post"
83,"flower_big_pink",26.72445,"overinformativeness",6628,5,"Flower","flower","first_post"
84,"scissors_big_green",26.72445,"overinformativeness",7687,5,"Scissor","scissors","first_post"
85,"cat_big_black",26.72445,"overinformativeness",4889,5,"Cat","cat","first_post"
86,"box_closed_cardboard",26.72445,"adjective_ordering",6572,5,"Box","box","first_post"
87,"picture_colored_square",26.72445,"adjective_ordering",10224,5,"Frame","picture","first_post"
88,"man_old_bearded",26.72445,"adjective_ordering",26652,5,"Men","man","first_post"
89,"button_big_blue",26.72445,"overinformativeness",5149,5,"Button","button","first_post"
90,"bag_big_red",26.72445,"overinformativeness",7651,5,"Bag","bag","first_post"
91,"apple_big_red",26.72445,"overinformativeness",6700,5,"Apple","apple","first_post"
92,"book_big_red",26.72445,"overinformativeness",6307,5,"Book","book","first_post"
93,"ball_big_purple",26.72445,"overinformativeness",5121,5,"Ball","ball","first_post"
94,"cup_empty_glass",26.72445,"adjective_ordering",6515,5,"Glass","cup","first_post"
95,"chair_big_blue",26.72445,"overinformativeness",5701,5,"Chair","chair","first_post"
96,"table_metal_high",26.72445,"adjective_ordering",11804,5,"Table","table","first_post"
97,"bottle_plastic_small",26.72445,"adjective_ordering",6779,5,"Bottle","bottle","first_post"
98,"tshirt_big_yellow",26.72445,"overinformativeness",10004,5,"t-Shirt","tshirt","first_post"
99,"pepper_big_green",26.72445,"overinformativeness",13736,5,"Tomato","pepper","first_post"
100,"picture_bw_rectangular",26.72445,"adjective_ordering",5971,5,"Frame","picture","first_post"
101,"glasses_big_red",26.72445,"overinformativeness",11456,5,"Glass","glasses","first_post"
102,"lighter_big_white",26.72445,"overinformativeness",5280,5,"Lighter","lighter","first_post"
103,"bottle_glass_small",26.72445,"adjective_ordering",5532,5,"Bottle","bottle","first_post"
104,"rosary_big_yellow",26.72445,"overinformativeness",5440,5,"Chain","rosary","first_post"
105,"bag_big_blue",26.72445,"overinformativeness",7052,5,"Bag","bag","first_post"
106,"lipstick_big_pink",26.72445,"overinformativeness",8272,5,"Lipstick","lipstick","first_post"
107,"woman_old_sad",26.72445,"adjective_ordering",7952,5,"Women","woman","first_post"
108,"shorts_dry_red",26.72445,"adjective_ordering",5791,5,"Shorts","shorts","first_post"
109,"chair_big_yellow",26.72445,"overinformativeness",6836,5,"Chair","chair","first_post"
110,"spoon_wooden_dirty",26.72445,"adjective_ordering",5884,5,"Spoon","spoon","first_post"
111,"bottle_plastic_big",26.72445,"adjective_ordering",5000,5,"Bottle","bottle","first_post"
112,"book_big_blue",26.72445,"overinformativeness",5199,5,"Book","book","first_post"
113,"mirror_big_black",26.72445,"overinformativeness",10085,5,"Hand Mirror","mirror","first_post"
114,"woman_old_happy",26.72445,"adjective_ordering",6395,5,"Women","woman","first_post"
115,"apple_big_green",26.72445,"overinformativeness",13673,5,"Fruit","apple","first_post"
116,"pencil_long_blue",26.72445,"adjective_ordering",6076,5,"Pencil","pencil","first_post"
117,"box_closed_wood",26.72445,"adjective_ordering",5912,5,"Box","box","first_post"
118,"man_young_bald",26.72445,"adjective_ordering",5648,5,"Men","man","first_post"
119,"shorts_dry_green",26.72445,"adjective_ordering",7012,5,"Shorts","shorts","first_post"
120,"toothbrush_big_green",26.72445,"overinformativeness",6604,5,"Brush","toothbrush","first_post"
121,"balloon_big_pink",26.72445,"overinformativeness",13008,5,"Ballon","balloon","first_post"
122,"woman_young_sad",26.72445,"adjective_ordering",9232,5,"Women","woman","first_post"
1,"",7.21366666666667,"bot_check",0,6,"Deniz","Deniz","first_post"
3,"shorts_wrinkled_red",7.21366666666667,"adjective_ordering",11053,6,"jetty","shorts","first_post"
4,"button_big_blue",7.21366666666667,"overinformativeness",7944,6,"botton","button","first_post"
5,"skirt_big_green",7.21366666666667,"overinformativeness",3274,6,"hfgh","skirt","first_post"
6,"lipstick_big_pink",7.21366666666667,"overinformativeness",9472,6,"lift","lipstick","first_post"
7,"pot_big_green",7.21366666666667,"overinformativeness",5969,6,"coocer","pot","first_post"
8,"scissors_big_blue",7.21366666666667,"overinformativeness",8238,6,"nice","scissors","first_post"
9,"key_big_silver",7.21366666666667,"overinformativeness",2647,6,"nice","key","first_post"
10,"ball_big_purple",7.21366666666667,"overinformativeness",1548,6,"nice","ball","first_post"
11,"shoe_big_pink",7.21366666666667,"overinformativeness",1548,6,"nice","shoe","first_post"
12,"chair_big_yellow",7.21366666666667,"overinformativeness",1333,6,"nice","chair","first_post"
13,"umbrella_big_green",7.21366666666667,"overinformativeness",1944,6,"nice","umbrella","first_post"
14,"table_wood_high",7.21366666666667,"adjective_ordering",1289,6,"nice","table","first_post"
15,"cat_big_black",7.21366666666667,"overinformativeness",2652,6,"nicenice","cat","first_post"
16,"pepper_big_green",7.21366666666667,"overinformativeness",1206,6,"nice","pepper","first_post"
17,"cup_empty_metal",7.21366666666667,"adjective_ordering",1478,6,"nice","cup","first_post"
18,"box_closed_cardboard",7.21366666666667,"adjective_ordering",1195,6,"nice","box","first_post"
19,"picture_colored_rectangular",7.21366666666667,"adjective_ordering",1146,6,"nice","picture","first_post"
20,"pencil_short_blue",7.21366666666667,"adjective_ordering",1196,6,"nice","pencil","first_post"
21,"woman_old_sad",7.21366666666667,"adjective_ordering",2808,6,"nice","woman","first_post"
22,"binoculars_big_blue",7.21366666666667,"overinformativeness",1610,6,"nice","binoculars","first_post"
23,"box_open_cardboard",7.21366666666667,"adjective_ordering",3018,6,"nice","box","first_post"
24,"socks_big_green",7.21366666666667,"overinformativeness",1093,6,"nice","socks","first_post"
25,"pot_big_blue",7.21366666666667,"overinformativeness",1531,6,"nice","pot","first_post"
26,"car_big_green",7.21366666666667,"overinformativeness",1160,6,"nice","car","first_post"
27,"shoe_big_yellow",7.21366666666667,"overinformativeness",2150,6,"nice","shoe","first_post"
28,"pants_big_green",7.21366666666667,"overinformativeness",1248,6,"nice","pants","first_post"
29,"bottle_glass_big",7.21366666666667,"adjective_ordering",938,6,"nice","bottle","first_post"
30,"balloon_big_pink",7.21366666666667,"overinformativeness",1712,6,"nice","balloon","first_post"
31,"glove_big_orange",7.21366666666667,"overinformativeness",1100,6,"nice","glove","first_post"
32,"dress_big_blue",7.21366666666667,"overinformativeness",1120,6,"nice","dress","first_post"
33,"table_wood_low",7.21366666666667,"adjective_ordering",1670,6,"nice","table","first_post"
34,"pencil_long_black",7.21366666666667,"adjective_ordering",1107,6,"nice","pencil","first_post"
35,"hair_curly_blonde",7.21366666666667,"adjective_ordering",1277,6,"nice","hair","first_post"
36,"bottle_plastic_big",7.21366666666667,"adjective_ordering",986,6,"nice","bottle","first_post"
37,"woman_old_happy",7.21366666666667,"adjective_ordering",1244,6,"nice","woman","first_post"
38,"book_big_blue",7.21366666666667,"overinformativeness",1097,6,"nice","book","first_post"
39,"hat_big_pink",7.21366666666667,"overinformativeness",961,6,"nice","hat","first_post"
40,"spoon_metal_dirty",7.21366666666667,"adjective_ordering",1168,6,"nice","spoon","first_post"
41,"mirror_big_white",7.21366666666667,"overinformativeness",1086,6,"nice","mirror","first_post"
42,"earring_small_round",7.21366666666667,"adjective_ordering",1053,6,"nice","earring","first_post"
43,"earring_big_round",7.21366666666667,"adjective_ordering",1052,6,"nice","earring","first_post"
44,"bottle_glass_small",7.21366666666667,"adjective_ordering",900,6,"nice","bottle","first_post"
45,"mirror_big_black",7.21366666666667,"overinformativeness",897,6,"nice","mirror","first_post"
46,"balloon_big_yellow",7.21366666666667,"overinformativeness",1527,6,"nice","balloon","first_post"
47,"hair_curly_brown",7.21366666666667,"adjective_ordering",1068,6,"nice","hair","first_post"
48,"glove_big_green",7.21366666666667,"overinformativeness",2234,6,"nice","glove","first_post"
49,"lipstick_big_red",7.21366666666667,"overinformativeness",1176,6,"nice","lipstick","first_post"
50,"glasses_big_red",7.21366666666667,"overinformativeness",947,6,"nice","glasses","first_post"
51,"shorts_wet_green",7.21366666666667,"adjective_ordering",1263,6,"nice","shorts","first_post"
52,"scissors_big_green",7.21366666666667,"overinformativeness",935,6,"nice","scissors","first_post"
53,"glasses_big_blue",7.21366666666667,"overinformativeness",1263,6,"nice","glasses","first_post"
54,"picture_bw_square",7.21366666666667,"adjective_ordering",1156,6,"nice","picture","first_post"
55,"box_closed_wood",7.21366666666667,"adjective_ordering",906,6,"nice","box","first_post"
56,"brush_big_red",7.21366666666667,"overinformativeness",3520,6,"nice","brush","first_post"
57,"cup_empty_glass",7.21366666666667,"adjective_ordering",1109,6,"nice","cup","first_post"
58,"clock_big_yellow",7.21366666666667,"overinformativeness",930,6,"nice","clock","first_post"
59,"shorts_dry_red",7.21366666666667,"adjective_ordering",1030,6,"nice","shorts","first_post"
60,"woman_young_sad",7.21366666666667,"adjective_ordering",1014,6,"nice","woman","first_post"
61,"picture_colored_square",7.21366666666667,"adjective_ordering",1158,6,"nice","picture","first_post"
62,"shorts_wet_red",7.21366666666667,"adjective_ordering",959,6,"nice","shorts","first_post"
63,"apple_big_red",7.21366666666667,"overinformativeness",2873,6,"nice","apple","first_post"
64,"dress_big_green",7.21366666666667,"overinformativeness",1944,6,"nice","dress","first_post"
65,"box_open_wood",7.21366666666667,"adjective_ordering",1082,6,"nice","box","first_post"
66,"woman_young_happy",7.21366666666667,"adjective_ordering",761,6,"nice","woman","first_post"
67,"rosary_big_yellow",7.21366666666667,"overinformativeness",1068,6,"nice","rosary","first_post"
68,"binoculars_big_red",7.21366666666667,"overinformativeness",2574,6,"nice","binoculars","first_post"
69,"shorts_dry_green",7.21366666666667,"adjective_ordering",2690,6,"nice","shorts","first_post"
70,"lighter_big_black",7.21366666666667,"overinformativeness",2260,6,"nice","lighter","first_post"
71,"umbrella_big_blue",7.21366666666667,"overinformativeness",1203,6,"nice","umbrella","first_post"
72,"table_metal_high",7.21366666666667,"adjective_ordering",961,6,"nice","table","first_post"
73,"lock_big_silver",7.21366666666667,"overinformativeness",1361,6,"nice","lock","first_post"
74,"toothbrush_big_green",7.21366666666667,"overinformativeness",953,6,"nice","toothbrush","first_post"
75,"pencil_long_blue",7.21366666666667,"adjective_ordering",946,6,"nice","pencil","first_post"
76,"key_big_gold",7.21366666666667,"overinformativeness",1028,6,"nice","key","first_post"
77,"pants_big_pink",7.21366666666667,"overinformativeness",979,6,"nice","pants","first_post"
78,"toothbrush_big_purple",7.21366666666667,"overinformativeness",945,6,"nice","toothbrush","first_post"
79,"ball_big_yellow",7.21366666666667,"overinformativeness",878,6,"nice","ball","first_post"
80,"hair_straight_blond",7.21366666666667,"adjective_ordering",897,6,"nice","hair","first_post"
81,"tie_big_red",7.21366666666667,"overinformativeness",899,6,"nice","tie","first_post"
82,"apple_big_green",7.21366666666667,"overinformativeness",854,6,"nice","apple","first_post"
83,"pepper_big_red",7.21366666666667,"overinformativeness",911,6,"nice","pepper","first_post"
84,"spoon_metal_clean",7.21366666666667,"adjective_ordering",951,6,"nice","spoon","first_post"
85,"lock_big_gold",7.21366666666667,"overinformativeness",862,6,"nice","lock","first_post"
86,"table_metal_low",7.21366666666667,"adjective_ordering",863,6,"nice","table","first_post"
87,"spoon_wooden_dirty",7.21366666666667,"adjective_ordering",956,6,"nice","spoon","first_post"
88,"knife_big_blue",7.21366666666667,"overinformativeness",896,6,"nice","knife","first_post"
89,"clock_big_purple",7.21366666666667,"overinformativeness",2396,6,"nicenice","clock","first_post"
90,"tshirt_big_orange",7.21366666666667,"overinformativeness",1161,6,"nice","tshirt","first_post"
91,"skirt_big_blue",7.21366666666667,"overinformativeness",1084,6,"nice","skirt","first_post"
92,"bag_big_blue",7.21366666666667,"overinformativeness",1010,6,"nice","bag","first_post"
93,"brush_big_blue",7.21366666666667,"overinformativeness",1098,6,"nice","brush","first_post"
94,"cat_big_white",7.21366666666667,"overinformativeness",879,6,"nice","cat","first_post"
95,"book_big_red",7.21366666666667,"overinformativeness",980,6,"nice","book","first_post"
96,"cup_full_metal",7.21366666666667,"adjective_ordering",3274,6,"nice","cup","first_post"
97,"earring_small_triangular",7.21366666666667,"adjective_ordering",873,6,"nice","earring","first_post"
98,"flower_big_pink",7.21366666666667,"overinformativeness",1954,6,"nice","flower","first_post"
99,"tshirt_big_yellow",7.21366666666667,"overinformativeness",2737,6,"nice","tshirt","first_post"
100,"man_old_bald",7.21366666666667,"adjective_ordering",1657,6,"nice","man","first_post"
101,"button_big_green",7.21366666666667,"overinformativeness",1146,6,"nice","button","first_post"
102,"bottle_plastic_small",7.21366666666667,"adjective_ordering",2150,6,"nicenice","bottle","first_post"
103,"hair_straight_brown",7.21366666666667,"adjective_ordering",1139,6,"nice","hair","first_post"
104,"flower_big_yellow",7.21366666666667,"overinformativeness",2421,6,"nice","flower","first_post"
105,"rosary_big_blue",7.21366666666667,"overinformativeness",778,6,"nice","rosary","first_post"
106,"car_big_blue",7.21366666666667,"overinformativeness",906,6,"nice","car","first_post"
107,"cup_full_glass",7.21366666666667,"adjective_ordering",1244,6,"nice","cup","first_post"
108,"bag_big_red",7.21366666666667,"overinformativeness",991,6,"nice","bag","first_post"
109,"lighter_big_white",7.21366666666667,"overinformativeness",952,6,"nice","lighter","first_post"
110,"spoon_wooden_clean",7.21366666666667,"adjective_ordering",936,6,"nice","spoon","first_post"
111,"socks_big_blue",7.21366666666667,"overinformativeness",1711,6,"nice","socks","first_post"
112,"knife_big_red",7.21366666666667,"overinformativeness",928,6,"nice","knife","first_post"
113,"hat_big_orange",7.21366666666667,"overinformativeness",900,6,"nice","hat","first_post"
114,"man_young_bald",7.21366666666667,"adjective_ordering",2389,6,"nice","man","first_post"
115,"man_young_bearded",7.21366666666667,"adjective_ordering",1175,6,"nice","man","first_post"
116,"chair_big_blue",7.21366666666667,"overinformativeness",1288,6,"nice","chair","first_post"
117,"earring_big_triangular",7.21366666666667,"adjective_ordering",2126,6,"nice","earring","first_post"
118,"shorts_wrinkled_green",7.21366666666667,"adjective_ordering",985,6,"nice","shorts","first_post"
119,"man_old_bearded",7.21366666666667,"adjective_ordering",2500,6,"nice","man","first_post"
120,"pencil_short_black",7.21366666666667,"adjective_ordering",1109,6,"nice","pencil","first_post"
121,"tie_big_blue",7.21366666666667,"overinformativeness",1066,6,"nice","tie","first_post"
122,"picture_bw_rectangular",7.21366666666667,"adjective_ordering",2391,6,"nice","picture","first_post"
1,"",12.3458333333333,"bot_check",0,7,"Zenep","Zeynep","second_post"
1,"",12.3458333333333,"bot_check",0,7,"Zeynep","Zeynep","second_post"
3,"book_big_blue",12.3458333333333,"overinformativeness",71266,7,"kitap","book","second_post"
4,"cat_big_white",12.3458333333333,"overinformativeness",17490,7,"kedi","cat","second_post"
5,"scissors_big_blue",12.3458333333333,"overinformativeness",33295,7,"SISER","scissors","second_post"
6,"shoe_big_yellow",12.3458333333333,"overinformativeness",5210,7,"shoe","shoe","second_post"
7,"shorts_dry_red",12.3458333333333,"adjective_ordering",5954,7,"
tra k","shorts","second_post"
8,"bag_big_blue",12.3458333333333,"overinformativeness",2545,7,"
ssss","bag","second_post"
9,"spoon_wooden_clean",12.3458333333333,"adjective_ordering",8969,7,"
spoon","spoon","second_post"
10,"cat_big_black",12.3458333333333,"overinformativeness",2334,7,"
sdd","cat","second_post"
11,"pencil_long_black",12.3458333333333,"adjective_ordering",3481,7,"
ddd","pencil","second_post"
12,"bottle_plastic_big",12.3458333333333,"adjective_ordering",1614,7,"
dd","bottle","second_post"
13,"lipstick_big_red",12.3458333333333,"overinformativeness",1403,7,"
ddd","lipstick","second_post"
14,"picture_bw_rectangular",12.3458333333333,"adjective_ordering",2024,7,"
sss","picture","second_post"
15,"table_metal_high",12.3458333333333,"adjective_ordering",5456,7,"dd
","table","second_post"
16,"picture_colored_square",12.3458333333333,"adjective_ordering",2938,7,"
sda","picture","second_post"
17,"woman_young_sad",12.3458333333333,"adjective_ordering",2211,7,"
sd","woman","second_post"
18,"key_big_gold",12.3458333333333,"overinformativeness",1003,7,"
dddd","key","second_post"
19,"clock_big_yellow",12.3458333333333,"overinformativeness",1235,7,"
ff","clock","second_post"
20,"pencil_short_blue",12.3458333333333,"adjective_ordering",7549,7,"
ddd","pencil","second_post"
21,"lighter_big_white",12.3458333333333,"overinformativeness",2224,7,"
ffg","lighter","second_post"
22,"knife_big_red",12.3458333333333,"overinformativeness",1969,7,"
fg","knife","second_post"
23,"chair_big_blue",12.3458333333333,"overinformativeness",4240,7,"
tab","chair","second_post"
24,"pepper_big_green",12.3458333333333,"overinformativeness",5952,7,"
djjd","pepper","second_post"
25,"pants_big_green",12.3458333333333,"overinformativeness",2764,7,"
jddj","pants","second_post"
26,"glove_big_orange",12.3458333333333,"overinformativeness",1702,7,"
djjjd","glove","second_post"
27,"rosary_big_blue",12.3458333333333,"overinformativeness",3242,7,"
jjsj","rosary","second_post"
28,"bag_big_red",12.3458333333333,"overinformativeness",7220,7,"
bag'","bag","second_post"
29,"ball_big_yellow",12.3458333333333,"overinformativeness",3775,7,"
ball'","ball","second_post"
30,"earring_big_round",12.3458333333333,"adjective_ordering",3919,7,"
ll","earring","second_post"
31,"balloon_big_yellow",12.3458333333333,"overinformativeness",5200,7,"
lll","balloon","second_post"
32,"rosary_big_yellow",12.3458333333333,"overinformativeness",3100,7,"
sdd","rosary","second_post"
33,"hair_curly_brown",12.3458333333333,"adjective_ordering",3323,7,"
ddfd","hair","second_post"
34,"glasses_big_blue",12.3458333333333,"overinformativeness",2035,7,"
ds","glasses","second_post"
35,"toothbrush_big_purple",12.3458333333333,"overinformativeness",2185,7,"
kkd","toothbrush","second_post"
36,"binoculars_big_blue",12.3458333333333,"overinformativeness",2476,7,"
dd","binoculars","second_post"
37,"cup_empty_glass",12.3458333333333,"adjective_ordering",3245,7,"
asd","cup","second_post"
38,"ball_big_purple",12.3458333333333,"overinformativeness",1706,7,"
sd","ball","second_post"
39,"balloon_big_pink",12.3458333333333,"overinformativeness",1636,7,"
sd","balloon","second_post"
40,"brush_big_red",12.3458333333333,"overinformativeness",2016,7,"
da","brush","second_post"
41,"glasses_big_red",12.3458333333333,"overinformativeness",7322,7,"
eyeglass","glasses","second_post"
42,"socks_big_green",12.3458333333333,"overinformativeness",2988,7,"
jjk","socks","second_post"
43,"glove_big_green",12.3458333333333,"overinformativeness",3072,7,"
kjk","glove","second_post"
44,"dress_big_blue",12.3458333333333,"overinformativeness",3762,7,"
kjkk","dress","second_post"
45,"picture_bw_square",12.3458333333333,"adjective_ordering",5992,7,"
lll","picture","second_post"
46,"lock_big_gold",12.3458333333333,"overinformativeness",3243,7,"
vv","lock","second_post"
47,"flower_big_pink",12.3458333333333,"overinformativeness",2486,7,"
llgl","flower","second_post"
48,"apple_big_green",12.3458333333333,"overinformativeness",1746,7,"
glgl","apple","second_post"
49,"book_big_red",12.3458333333333,"overinformativeness",2223,7,"
tgl","book","second_post"
50,"woman_old_happy",12.3458333333333,"adjective_ordering",1731,7,"
glf","woman","second_post"
51,"earring_small_round",12.3458333333333,"adjective_ordering",3950,7,"
ear","earring","second_post"
52,"box_closed_wood",12.3458333333333,"adjective_ordering",2639,7,"
sdf","box","second_post"
53,"box_open_cardboard",12.3458333333333,"adjective_ordering",1582,7,"
sdfs","box","second_post"
54,"shorts_wet_green",12.3458333333333,"adjective_ordering",2455,7,"
ddd","shorts","second_post"
55,"pepper_big_red",12.3458333333333,"overinformativeness",16443,7,"
re","pepper","second_post"
56,"spoon_metal_dirty",12.3458333333333,"adjective_ordering",1949,7,"
ghjgh","spoon","second_post"
57,"dress_big_green",12.3458333333333,"overinformativeness",2207,7,"
ghjg","dress","second_post"
58,"lighter_big_black",12.3458333333333,"overinformativeness",1960,7,"
ghghjg","lighter","second_post"
59,"tie_big_blue",12.3458333333333,"overinformativeness",535,7,"
gh","tie","second_post"
60,"tshirt_big_yellow",12.3458333333333,"overinformativeness",683,7,"
jghjgh","tshirt","second_post"
61,"mirror_big_white",12.3458333333333,"overinformativeness",1497,7,"
ghghjg","mirror","second_post"
62,"lock_big_silver",12.3458333333333,"overinformativeness",1913,7,"
ghjg","lock","second_post"
63,"woman_old_sad",12.3458333333333,"adjective_ordering",1695,7,"
ghjg","woman","second_post"
64,"table_wood_high",12.3458333333333,"adjective_ordering",1791,7,"
swtr","table","second_post"
65,"pencil_long_blue",12.3458333333333,"adjective_ordering",1940,7,"
fhf","pencil","second_post"
66,"cup_empty_metal",12.3458333333333,"adjective_ordering",2084,7,"
gfh","cup","second_post"
67,"skirt_big_blue",12.3458333333333,"overinformativeness",1756,7,"
hgf","skirt","second_post"
68,"picture_colored_rectangular",12.3458333333333,"adjective_ordering",2175,7,"
hhh","picture","second_post"
69,"pencil_short_black",12.3458333333333,"adjective_ordering",4026,7,"
pencil","pencil","second_post"
70,"shorts_wrinkled_red",12.3458333333333,"adjective_ordering",22202,7,"
bvnhg","shorts","second_post"
71,"hair_straight_brown",12.3458333333333,"adjective_ordering",1808,7,"
fghfg","hair","second_post"
72,"umbrella_big_green",12.3458333333333,"overinformativeness",1520,7,"
fgfg","umbrella","second_post"
73,"table_metal_low",12.3458333333333,"adjective_ordering",5059,7,"
table","table","second_post"
74,"shoe_big_pink",12.3458333333333,"overinformativeness",4012,7,"
kfrt","shoe","second_post"
75,"man_old_bald",12.3458333333333,"adjective_ordering",3151,7,"
kedi'","man","second_post"
76,"spoon_metal_clean",12.3458333333333,"adjective_ordering",2680,7,"
juio","spoon","second_post"
77,"bottle_plastic_small",12.3458333333333,"adjective_ordering",2926,7,"
kli'","bottle","second_post"
78,"shorts_wrinkled_green",12.3458333333333,"adjective_ordering",2189,7,"
sdf","shorts","second_post"
79,"knife_big_blue",12.3458333333333,"overinformativeness",3370,7,"
sju","knife","second_post"
80,"man_old_bearded",12.3458333333333,"adjective_ordering",2361,7,"
jiouy","man","second_post"
81,"pot_big_green",12.3458333333333,"overinformativeness",4495,7,"
cooker","pot","second_post"
82,"brush_big_blue",12.3458333333333,"overinformativeness",4981,7,"
bytr'd","brush","second_post"
83,"cup_full_glass",12.3458333333333,"adjective_ordering",89656,7,"
bhdy","cup","second_post"
84,"man_young_bald",12.3458333333333,"adjective_ordering",21909,7,"
mnsj","man","second_post"
85,"car_big_blue",12.3458333333333,"overinformativeness",24721,7,"
\]]]]]]]]]]","car","second_post"
86,"shorts_wet_red",12.3458333333333,"adjective_ordering",5129,7,"
kjif","shorts","second_post"
87,"mirror_big_black",12.3458333333333,"overinformativeness",6532,7,"
kji'g","mirror","second_post"
88,"box_closed_cardboard",12.3458333333333,"adjective_ordering",2224,7,"
gllg","box","second_post"
89,"tshirt_big_orange",12.3458333333333,"overinformativeness",1345,7,"
ghg","tshirt","second_post"
90,"earring_big_triangular",12.3458333333333,"adjective_ordering",960,7,"
hhghg","earring","second_post"
91,"box_open_wood",12.3458333333333,"adjective_ordering",3927,7,"
lkio'k","box","second_post"
92,"pants_big_pink",12.3458333333333,"overinformativeness",5806,7,"
pion'y","pants","second_post"
93,"socks_big_blue",12.3458333333333,"overinformativeness",3361,7,"
l;ko;","socks","second_post"
94,"key_big_silver",12.3458333333333,"overinformativeness",4601,7,"
lkigf","key","second_post"
95,"hat_big_pink",12.3458333333333,"overinformativeness",3043,7,"
kedi","hat","second_post"
96,"skirt_big_green",12.3458333333333,"overinformativeness",4414,7,"
jedrtgy","skirt","second_post"
97,"shorts_dry_green",12.3458333333333,"adjective_ordering",3402,7,"
hhhh","shorts","second_post"
98,"button_big_green",12.3458333333333,"overinformativeness",2168,7,"
fghfg","button","second_post"
99,"scissors_big_green",12.3458333333333,"overinformativeness",2846,7,"
gbfg","scissors","second_post"
100,"earring_small_triangular",12.3458333333333,"adjective_ordering",1945,7,"
fghfg","earring","second_post"
101,"spoon_wooden_dirty",12.3458333333333,"adjective_ordering",2088,7,"
gfyt","spoon","second_post"
102,"chair_big_yellow",12.3458333333333,"overinformativeness",2157,7,"
jtyf","chair","second_post"
103,"table_wood_low",12.3458333333333,"adjective_ordering",1527,7,"
gfhg","table","second_post"
104,"hair_curly_blonde",12.3458333333333,"adjective_ordering",2344,7,"
btf","hair","second_post"
105,"flower_big_yellow",12.3458333333333,"overinformativeness",2399,7,"
fgjt","flower","second_post"
106,"bottle_glass_big",12.3458333333333,"adjective_ordering",8023,7,"
bolor'","bottle","second_post"
107,"cup_full_metal",12.3458333333333,"adjective_ordering",3679,7,"
dfgdf","cup","second_post"
108,"umbrella_big_blue",12.3458333333333,"overinformativeness",2376,7,"
fd","umbrella","second_post"
109,"toothbrush_big_green",12.3458333333333,"overinformativeness",1606,7,"
df","toothbrush","second_post"
110,"hat_big_orange",12.3458333333333,"overinformativeness",2812,7,"
gr","hat","second_post"
111,"pot_big_blue",12.3458333333333,"overinformativeness",1517,7,"
gr","pot","second_post"
112,"button_big_blue",12.3458333333333,"overinformativeness",1398,7,"
rg","button","second_post"
113,"clock_big_purple",12.3458333333333,"overinformativeness",1304,7,"
gr","clock","second_post"
114,"apple_big_red",12.3458333333333,"overinformativeness",1240,7,"
rg","apple","second_post"
115,"man_young_bearded",12.3458333333333,"adjective_ordering",1702,7,"
rgr","man","second_post"
116,"binoculars_big_red",12.3458333333333,"overinformativeness",2022,7,"
drg","binoculars","second_post"
117,"car_big_green",12.3458333333333,"overinformativeness",1580,7,"
rg","car","second_post"
118,"hair_straight_blond",12.3458333333333,"adjective_ordering",1659,7,"
rj","hair","second_post"
119,"bottle_glass_small",12.3458333333333,"adjective_ordering",1700,7,"
rg","bottle","second_post"
120,"woman_young_happy",12.3458333333333,"adjective_ordering",1771,7,"
drg","woman","second_post"
121,"tie_big_red",12.3458333333333,"overinformativeness",4433,7,"
drgd","tie","second_post"
122,"lipstick_big_pink",12.3458333333333,"overinformativeness",3176,7,"
ddd","lipstick","second_post"
1,"",14.4834833333333,"bot_check",0,8,"Selin","Selin","second_post"
3,"lighter_big_white",14.4834833333333,"overinformativeness",6722,8,"Cigar Lighter","lighter","second_post"
4,"chair_big_blue",14.4834833333333,"overinformativeness",17235,8,"Plastic Chair","chair","second_post"
5,"lipstick_big_red",14.4834833333333,"overinformativeness",5945,8,"Lipstick","lipstick","second_post"
6,"book_big_red",14.4834833333333,"overinformativeness",5841,8,"Book","book","second_post"
7,"pencil_long_blue",14.4834833333333,"adjective_ordering",2938,8,"Pencil","pencil","second_post"
8,"hair_curly_blonde",14.4834833333333,"adjective_ordering",39865,8,"blonde Hair","hair","second_post"
9,"spoon_wooden_clean",14.4834833333333,"adjective_ordering",4122,8,"Spoon","spoon","second_post"
10,"cat_big_black",14.4834833333333,"overinformativeness",7787,8,"Black Cat","cat","second_post"
11,"picture_bw_square",14.4834833333333,"adjective_ordering",3931,8,"Frame","picture","second_post"
12,"car_big_blue",14.4834833333333,"overinformativeness",5313,8,"Toy Car","car","second_post"
13,"glasses_big_blue",14.4834833333333,"overinformativeness",10241,8,"Eye Glass","glasses","second_post"
14,"pencil_short_blue",14.4834833333333,"adjective_ordering",4791,8,"Pencil","pencil","second_post"
15,"shorts_wet_red",14.4834833333333,"adjective_ordering",7957,8,"Trouser","shorts","second_post"
16,"balloon_big_yellow",14.4834833333333,"overinformativeness",4473,8,"Balloon","balloon","second_post"
17,"bottle_plastic_small",14.4834833333333,"adjective_ordering",6569,8,"Water Bottle","bottle","second_post"
18,"bottle_glass_small",14.4834833333333,"adjective_ordering",4409,8,"Bottle","bottle","second_post"
19,"tie_big_red",14.4834833333333,"overinformativeness",2365,8,"Tie","tie","second_post"
20,"lock_big_gold",14.4834833333333,"overinformativeness",2608,8,"Lock","lock","second_post"
21,"woman_old_sad",14.4834833333333,"adjective_ordering",4738,8,"Women","woman","second_post"
22,"mirror_big_white",14.4834833333333,"overinformativeness",7948,8,"Hand Mirror","mirror","second_post"
23,"cup_empty_glass",14.4834833333333,"adjective_ordering",5943,8,"Glass Tumbler","cup","second_post"
24,"box_closed_cardboard",14.4834833333333,"adjective_ordering",6702,8,"Cardboard Box","box","second_post"
25,"table_metal_high",14.4834833333333,"adjective_ordering",3803,8,"Table","table","second_post"
26,"box_open_cardboard",14.4834833333333,"adjective_ordering",4470,8,"Cardboard Box","box","second_post"
27,"lock_big_silver",14.4834833333333,"overinformativeness",7599,8,"Lock","lock","second_post"
28,"woman_old_happy",14.4834833333333,"adjective_ordering",10733,8,"Woman","woman","second_post"
29,"apple_big_green",14.4834833333333,"overinformativeness",4199,8,"Green Apple","apple","second_post"
30,"bag_big_red",14.4834833333333,"overinformativeness",16561,8,"Back Bag","bag","second_post"
31,"pot_big_green",14.4834833333333,"overinformativeness",11030,8,"Hot Pan","pot","second_post"
32,"shorts_wet_green",14.4834833333333,"adjective_ordering",5057,8,"Trouser","shorts","second_post"
33,"pants_big_green",14.4834833333333,"overinformativeness",4044,8,"Pant","pants","second_post"
34,"key_big_gold",14.4834833333333,"overinformativeness",2631,8,"Key","key","second_post"
35,"tie_big_blue",14.4834833333333,"overinformativeness",2409,8,"Tie","tie","second_post"
36,"socks_big_green",14.4834833333333,"overinformativeness",3285,8,"Socks","socks","second_post"
37,"mirror_big_black",14.4834833333333,"overinformativeness",6140,8,"Hand Mirror","mirror","second_post"
38,"picture_bw_rectangular",14.4834833333333,"adjective_ordering",4669,8,"Frame","picture","second_post"
39,"skirt_big_blue",14.4834833333333,"overinformativeness",19405,8,"Frock","skirt","second_post"
40,"umbrella_big_blue",14.4834833333333,"overinformativeness",5094,8,"Umbrella","umbrella","second_post"
41,"man_old_bald",14.4834833333333,"adjective_ordering",3036,8,"Man","man","second_post"
42,"knife_big_blue",14.4834833333333,"overinformativeness",2926,8,"Knife","knife","second_post"
43,"brush_big_red",14.4834833333333,"overinformativeness",4318,8,"Paint Brush","brush","second_post"
44,"bag_big_blue",14.4834833333333,"overinformativeness",8012,8,"Back Bag","bag","second_post"
45,"spoon_wooden_dirty",14.4834833333333,"adjective_ordering",2748,8,"Spoon","spoon","second_post"
46,"bottle_plastic_big",14.4834833333333,"adjective_ordering",4294,8,"Water Bottle","bottle","second_post"
47,"binoculars_big_blue",14.4834833333333,"overinformativeness",11377,8,"Binocular ","binoculars","second_post"
48,"pepper_big_green",14.4834833333333,"overinformativeness",11693,8,"Capsicum","pepper","second_post"
49,"lighter_big_black",14.4834833333333,"overinformativeness",6281,8,"Lighter","lighter","second_post"
50,"hair_curly_brown",14.4834833333333,"adjective_ordering",6380,8,"Curly Hair","hair","second_post"
51,"flower_big_yellow",14.4834833333333,"overinformativeness",6823,8,"Sunflower","flower","second_post"
52,"cup_empty_metal",14.4834833333333,"adjective_ordering",4007,8,"Tumbler","cup","second_post"
53,"toothbrush_big_green",14.4834833333333,"overinformativeness",8432,8,"Tooth Brush","toothbrush","second_post"
54,"hair_straight_brown",14.4834833333333,"adjective_ordering",6971,8,"Long Hair","hair","second_post"
55,"lipstick_big_pink",14.4834833333333,"overinformativeness",3163,8,"Lipstick","lipstick","second_post"
56,"rosary_big_blue",14.4834833333333,"overinformativeness",15359,8,"Necklace","rosary","second_post"
57,"bottle_glass_big",14.4834833333333,"adjective_ordering",2990,8,"Bottle","bottle","second_post"
58,"rosary_big_yellow",14.4834833333333,"overinformativeness",3333,8,"Necklace","rosary","second_post"
59,"man_young_bearded",14.4834833333333,"adjective_ordering",2972,8,"Man","man","second_post"
60,"cup_full_glass",14.4834833333333,"adjective_ordering",4768,8,"Tea","cup","second_post"
61,"man_young_bald",14.4834833333333,"adjective_ordering",2558,8,"Man","man","second_post"
62,"cat_big_white",14.4834833333333,"overinformativeness",3721,8,"White Cat","cat","second_post"
63,"cup_full_metal",14.4834833333333,"adjective_ordering",4116,8,"Juice","cup","second_post"
64,"hat_big_pink",14.4834833333333,"overinformativeness",9578,8,"Cowboy Hat","hat","second_post"
65,"spoon_metal_clean",14.4834833333333,"adjective_ordering",4120,8,"Spoon","spoon","second_post"
66,"hair_straight_blond",14.4834833333333,"adjective_ordering",6167,8,"Long Hair","hair","second_post"
67,"picture_colored_rectangular",14.4834833333333,"adjective_ordering",4296,8,"Photo Frame","picture","second_post"
68,"chair_big_yellow",14.4834833333333,"overinformativeness",5763,8,"Plastic Chair","chair","second_post"
69,"button_big_green",14.4834833333333,"overinformativeness",3064,8,"Button","button","second_post"
70,"earring_small_triangular",14.4834833333333,"adjective_ordering",4899,8,"Earing","earring","second_post"
71,"pencil_long_black",14.4834833333333,"adjective_ordering",2730,8,"Pencil","pencil","second_post"
72,"woman_young_happy",14.4834833333333,"adjective_ordering",4799,8,"Woman","woman","second_post"
73,"shorts_wrinkled_red",14.4834833333333,"adjective_ordering",4679,8,"Trouser","shorts","second_post"
74,"book_big_blue",14.4834833333333,"overinformativeness",2557,8,"Book","book","second_post"
75,"glove_big_orange",14.4834833333333,"overinformativeness",6127,8,"Gloves","glove","second_post"
76,"box_closed_wood",14.4834833333333,"adjective_ordering",6108,8,"Wooden Box","box","second_post"
77,"pot_big_blue",14.4834833333333,"overinformativeness",4759,8,"Hot Pan","pot","second_post"
78,"scissors_big_blue",14.4834833333333,"overinformativeness",3644,8,"Scissors","scissors","second_post"
79,"woman_young_sad",14.4834833333333,"adjective_ordering",8905,8,"Crying Woman","woman","second_post"
80,"shoe_big_yellow",14.4834833333333,"overinformativeness",3841,8,"Shoe","shoe","second_post"
81,"clock_big_yellow",14.4834833333333,"overinformativeness",13695,8,"Clock","clock","second_post"
82,"umbrella_big_green",14.4834833333333,"overinformativeness",8254,8,"Umbrella","umbrella","second_post"
83,"apple_big_red",14.4834833333333,"overinformativeness",2436,8,"Apple","apple","second_post"
84,"balloon_big_pink",14.4834833333333,"overinformativeness",3546,8,"Balloon","balloon","second_post"
