slide_number_in_experiment,trial_type,label,object,rt,response,Browser,OS,screenH,screenW,language,enjoyment,asses,age,gender,education,comments,problems,fairprice,participant_id
1,bot_check,,beyaz,0,beyaz,Chrome,Windows,900,1600,türkçe,1,Yes,32,Male,3,"Zannediyorum ki, ilk başta gösterilen fotoğraflara verilen düz cevapların, daha sonra yine benzer fotoların farklı renk ve desenlerde olması nedeniyle, verilen cevapların daha spesifik ve tanımlayıcı hale gelmesiyle ilgi bir deney. ","hayır, her şey gayet düzgün ve akıcıydı",,125863
3,overinformativeness,cat_big_white,cat,5991,kedi,Chrome,Windows,900,1600,türkçe,1,Yes,32,Male,3,"Zannediyorum ki, ilk başta gösterilen fotoğraflara verilen düz cevapların, daha sonra yine benzer fotoların farklı renk ve desenlerde olması nedeniyle, verilen cevapların daha spesifik ve tanımlayıcı hale gelmesiyle ilgi bir deney. ","hayır, her şey gayet düzgün ve akıcıydı",,125863
4,overinformativeness,skirt_big_blue,skirt,4600,etek,Chrome,Windows,900,1600,türkçe,1,Yes,32,Male,3,"Zannediyorum ki, ilk başta gösterilen fotoğraflara verilen düz cevapların, daha sonra yine benzer fotoların farklı renk ve desenlerde olması nedeniyle, verilen cevapların daha spesifik ve tanımlayıcı hale gelmesiyle ilgi bir deney. ","hayır, her şey gayet düzgün ve akıcıydı",,125863
5,overinformativeness,apple_big_red,apple,8023,elma,Chrome,Windows,900,1600,türkçe,1,Yes,32,Male,3,"Zannediyorum ki, ilk başta gösterilen fotoğraflara verilen düz cevapların, daha sonra yine benzer fotoların farklı renk ve desenlerde olması nedeniyle, verilen cevapların daha spesifik ve tanımlayıcı hale gelmesiyle ilgi bir deney. ","hayır, her şey gayet düzgün ve akıcıydı",,125863
6,overinformativeness,brush_big_blue,brush,4376,fırça,Chrome,Windows,900,1600,türkçe,1,Yes,32,Male,3,"Zannediyorum ki, ilk başta gösterilen fotoğraflara verilen düz cevapların, daha sonra yine benzer fotoların farklı renk ve desenlerde olması nedeniyle, verilen cevapların daha spesifik ve tanımlayıcı hale gelmesiyle ilgi bir deney. ","hayır, her şey gayet düzgün ve akıcıydı",,125863
7,overinformativeness,lock_big_silver,lock,3567,kilit,Chrome,Windows,900,1600,türkçe,1,Yes,32,Male,3,"Zannediyorum ki, ilk başta gösterilen fotoğraflara verilen düz cevapların, daha sonra yine benzer fotoların farklı renk ve desenlerde olması nedeniyle, verilen cevapların daha spesifik ve tanımlayıcı hale gelmesiyle ilgi bir deney. ","hayır, her şey gayet düzgün ve akıcıydı",,125863
8,adjective_ordering,box_closed_cardboard,box,3904,kutu,Chrome,Windows,900,1600,türkçe,1,Yes,32,Male,3,"Zannediyorum ki, ilk başta gösterilen fotoğraflara verilen düz cevapların, daha sonra yine benzer fotoların farklı renk ve desenlerde olması nedeniyle, verilen cevapların daha spesifik ve tanımlayıcı hale gelmesiyle ilgi bir deney. ","hayır, her şey gayet düzgün ve akıcıydı",,125863
9,overinformativeness,toothbrush_big_purple,toothbrush,14866,diş fırçası,Chrome,Windows,900,1600,türkçe,1,Yes,32,Male,3,"Zannediyorum ki, ilk başta gösterilen fotoğraflara verilen düz cevapların, daha sonra yine benzer fotoların farklı renk ve desenlerde olması nedeniyle, verilen cevapların daha spesifik ve tanımlayıcı hale gelmesiyle ilgi bir deney. ","hayır, her şey gayet düzgün ve akıcıydı",,125863
10,overinformativeness,ball_big_purple,ball,25010,yoga topu,Chrome,Windows,900,1600,türkçe,1,Yes,32,Male,3,"Zannediyorum ki, ilk başta gösterilen fotoğraflara verilen düz cevapların, daha sonra yine benzer fotoların farklı renk ve desenlerde olması nedeniyle, verilen cevapların daha spesifik ve tanımlayıcı hale gelmesiyle ilgi bir deney. ","hayır, her şey gayet düzgün ve akıcıydı",,125863
11,overinformativeness,knife_big_blue,knife,5312,bıçak,Chrome,Windows,900,1600,türkçe,1,Yes,32,Male,3,"Zannediyorum ki, ilk başta gösterilen fotoğraflara verilen düz cevapların, daha sonra yine benzer fotoların farklı renk ve desenlerde olması nedeniyle, verilen cevapların daha spesifik ve tanımlayıcı hale gelmesiyle ilgi bir deney. ","hayır, her şey gayet düzgün ve akıcıydı",,125863
12,overinformativeness,apple_big_green,apple,5096,yeşil elma,Chrome,Windows,900,1600,türkçe,1,Yes,32,Male,3,"Zannediyorum ki, ilk başta gösterilen fotoğraflara verilen düz cevapların, daha sonra yine benzer fotoların farklı renk ve desenlerde olması nedeniyle, verilen cevapların daha spesifik ve tanımlayıcı hale gelmesiyle ilgi bir deney. ","hayır, her şey gayet düzgün ve akıcıydı",,125863
13,overinformativeness,ball_big_yellow,ball,14360,sarı yoga topu,Chrome,Windows,900,1600,türkçe,1,Yes,32,Male,3,"Zannediyorum ki, ilk başta gösterilen fotoğraflara verilen düz cevapların, daha sonra yine benzer fotoların farklı renk ve desenlerde olması nedeniyle, verilen cevapların daha spesifik ve tanımlayıcı hale gelmesiyle ilgi bir deney. ","hayır, her şey gayet düzgün ve akıcıydı",,125863
14,overinformativeness,pot_big_green,pot,5129,tencere,Chrome,Windows,900,1600,türkçe,1,Yes,32,Male,3,"Zannediyorum ki, ilk başta gösterilen fotoğraflara verilen düz cevapların, daha sonra yine benzer fotoların farklı renk ve desenlerde olması nedeniyle, verilen cevapların daha spesifik ve tanımlayıcı hale gelmesiyle ilgi bir deney. ","hayır, her şey gayet düzgün ve akıcıydı",,125863
15,overinformativeness,glasses_big_red,glasses,3648,gözlük,Chrome,Windows,900,1600,türkçe,1,Yes,32,Male,3,"Zannediyorum ki, ilk başta gösterilen fotoğraflara verilen düz cevapların, daha sonra yine benzer fotoların farklı renk ve desenlerde olması nedeniyle, verilen cevapların daha spesifik ve tanımlayıcı hale gelmesiyle ilgi bir deney. ","hayır, her şey gayet düzgün ve akıcıydı",,125863
16,overinformativeness,key_big_gold,key,3297,anahtar,Chrome,Windows,900,1600,türkçe,1,Yes,32,Male,3,"Zannediyorum ki, ilk başta gösterilen fotoğraflara verilen düz cevapların, daha sonra yine benzer fotoların farklı renk ve desenlerde olması nedeniyle, verilen cevapların daha spesifik ve tanımlayıcı hale gelmesiyle ilgi bir deney. ","hayır, her şey gayet düzgün ve akıcıydı",,125863
17,overinformativeness,socks_big_green,socks,3735,çorap,Chrome,Windows,900,1600,türkçe,1,Yes,32,Male,3,"Zannediyorum ki, ilk başta gösterilen fotoğraflara verilen düz cevapların, daha sonra yine benzer fotoların farklı renk ve desenlerde olması nedeniyle, verilen cevapların daha spesifik ve tanımlayıcı hale gelmesiyle ilgi bir deney. ","hayır, her şey gayet düzgün ve akıcıydı",,125863
18,overinformativeness,balloon_big_yellow,balloon,3145,balon,Chrome,Windows,900,1600,türkçe,1,Yes,32,Male,3,"Zannediyorum ki, ilk başta gösterilen fotoğraflara verilen düz cevapların, daha sonra yine benzer fotoların farklı renk ve desenlerde olması nedeniyle, verilen cevapların daha spesifik ve tanımlayıcı hale gelmesiyle ilgi bir deney. ","hayır, her şey gayet düzgün ve akıcıydı",,125863
19,overinformativeness,lighter_big_black,lighter,3120,çakmak,Chrome,Windows,900,1600,türkçe,1,Yes,32,Male,3,"Zannediyorum ki, ilk başta gösterilen fotoğraflara verilen düz cevapların, daha sonra yine benzer fotoların farklı renk ve desenlerde olması nedeniyle, verilen cevapların daha spesifik ve tanımlayıcı hale gelmesiyle ilgi bir deney. ","hayır, her şey gayet düzgün ve akıcıydı",,125863
20,overinformativeness,shoe_big_yellow,shoe,8593,bez ayakkabı,Chrome,Windows,900,1600,türkçe,1,Yes,32,Male,3,"Zannediyorum ki, ilk başta gösterilen fotoğraflara verilen düz cevapların, daha sonra yine benzer fotoların farklı renk ve desenlerde olması nedeniyle, verilen cevapların daha spesifik ve tanımlayıcı hale gelmesiyle ilgi bir deney. ","hayır, her şey gayet düzgün ve akıcıydı",,125863
21,overinformativeness,flower_big_yellow,flower,7327,çiçek,Chrome,Windows,900,1600,türkçe,1,Yes,32,Male,3,"Zannediyorum ki, ilk başta gösterilen fotoğraflara verilen düz cevapların, daha sonra yine benzer fotoların farklı renk ve desenlerde olması nedeniyle, verilen cevapların daha spesifik ve tanımlayıcı hale gelmesiyle ilgi bir deney. ","hayır, her şey gayet düzgün ve akıcıydı",,125863
22,overinformativeness,hat_big_pink,hat,5840,şapka,Chrome,Windows,900,1600,türkçe,1,Yes,32,Male,3,"Zannediyorum ki, ilk başta gösterilen fotoğraflara verilen düz cevapların, daha sonra yine benzer fotoların farklı renk ve desenlerde olması nedeniyle, verilen cevapların daha spesifik ve tanımlayıcı hale gelmesiyle ilgi bir deney. ","hayır, her şey gayet düzgün ve akıcıydı",,125863
23,overinformativeness,balloon_big_pink,balloon,4008,balon,Chrome,Windows,900,1600,türkçe,1,Yes,32,Male,3,"Zannediyorum ki, ilk başta gösterilen fotoğraflara verilen düz cevapların, daha sonra yine benzer fotoların farklı renk ve desenlerde olması nedeniyle, verilen cevapların daha spesifik ve tanımlayıcı hale gelmesiyle ilgi bir deney. ","hayır, her şey gayet düzgün ve akıcıydı",,125863
24,overinformativeness,clock_big_yellow,clock,4240,çalar saat,Chrome,Windows,900,1600,türkçe,1,Yes,32,Male,3,"Zannediyorum ki, ilk başta gösterilen fotoğraflara verilen düz cevapların, daha sonra yine benzer fotoların farklı renk ve desenlerde olması nedeniyle, verilen cevapların daha spesifik ve tanımlayıcı hale gelmesiyle ilgi bir deney. ","hayır, her şey gayet düzgün ve akıcıydı",,125863
25,adjective_ordering,shorts_wet_red,shorts,7105,şort,Chrome,Windows,900,1600,türkçe,1,Yes,32,Male,3,"Zannediyorum ki, ilk başta gösterilen fotoğraflara verilen düz cevapların, daha sonra yine benzer fotoların farklı renk ve desenlerde olması nedeniyle, verilen cevapların daha spesifik ve tanımlayıcı hale gelmesiyle ilgi bir deney. ","hayır, her şey gayet düzgün ve akıcıydı",,125863
26,overinformativeness,button_big_blue,button,4775,düğme,Chrome,Windows,900,1600,türkçe,1,Yes,32,Male,3,"Zannediyorum ki, ilk başta gösterilen fotoğraflara verilen düz cevapların, daha sonra yine benzer fotoların farklı renk ve desenlerde olması nedeniyle, verilen cevapların daha spesifik ve tanımlayıcı hale gelmesiyle ilgi bir deney. ","hayır, her şey gayet düzgün ve akıcıydı",,125863
27,adjective_ordering,bottle_plastic_small,bottle,3336,şişe,Chrome,Windows,900,1600,türkçe,1,Yes,32,Male,3,"Zannediyorum ki, ilk başta gösterilen fotoğraflara verilen düz cevapların, daha sonra yine benzer fotoların farklı renk ve desenlerde olması nedeniyle, verilen cevapların daha spesifik ve tanımlayıcı hale gelmesiyle ilgi bir deney. ","hayır, her şey gayet düzgün ve akıcıydı",,125863
28,adjective_ordering,cup_empty_metal,cup,34473,ayran tası,Chrome,Windows,900,1600,türkçe,1,Yes,32,Male,3,"Zannediyorum ki, ilk başta gösterilen fotoğraflara verilen düz cevapların, daha sonra yine benzer fotoların farklı renk ve desenlerde olması nedeniyle, verilen cevapların daha spesifik ve tanımlayıcı hale gelmesiyle ilgi bir deney. ","hayır, her şey gayet düzgün ve akıcıydı",,125863
29,overinformativeness,chair_big_blue,chair,4342,sandalye,Chrome,Windows,900,1600,türkçe,1,Yes,32,Male,3,"Zannediyorum ki, ilk başta gösterilen fotoğraflara verilen düz cevapların, daha sonra yine benzer fotoların farklı renk ve desenlerde olması nedeniyle, verilen cevapların daha spesifik ve tanımlayıcı hale gelmesiyle ilgi bir deney. ","hayır, her şey gayet düzgün ve akıcıydı",,125863
30,overinformativeness,hat_big_orange,hat,5602,şapka,Chrome,Windows,900,1600,türkçe,1,Yes,32,Male,3,"Zannediyorum ki, ilk başta gösterilen fotoğraflara verilen düz cevapların, daha sonra yine benzer fotoların farklı renk ve desenlerde olması nedeniyle, verilen cevapların daha spesifik ve tanımlayıcı hale gelmesiyle ilgi bir deney. ","hayır, her şey gayet düzgün ve akıcıydı",,125863
31,overinformativeness,binoculars_big_blue,binoculars,22367,dürbün,Chrome,Windows,900,1600,türkçe,1,Yes,32,Male,3,"Zannediyorum ki, ilk başta gösterilen fotoğraflara verilen düz cevapların, daha sonra yine benzer fotoların farklı renk ve desenlerde olması nedeniyle, verilen cevapların daha spesifik ve tanımlayıcı hale gelmesiyle ilgi bir deney. ","hayır, her şey gayet düzgün ve akıcıydı",,125863
32,overinformativeness,umbrella_big_blue,umbrella,5600,şemsiye,Chrome,Windows,900,1600,türkçe,1,Yes,32,Male,3,"Zannediyorum ki, ilk başta gösterilen fotoğraflara verilen düz cevapların, daha sonra yine benzer fotoların farklı renk ve desenlerde olması nedeniyle, verilen cevapların daha spesifik ve tanımlayıcı hale gelmesiyle ilgi bir deney. ","hayır, her şey gayet düzgün ve akıcıydı",,125863
33,overinformativeness,binoculars_big_red,binoculars,4632,kırmızı dürbün,Chrome,Windows,900,1600,türkçe,1,Yes,32,Male,3,"Zannediyorum ki, ilk başta gösterilen fotoğraflara verilen düz cevapların, daha sonra yine benzer fotoların farklı renk ve desenlerde olması nedeniyle, verilen cevapların daha spesifik ve tanımlayıcı hale gelmesiyle ilgi bir deney. ","hayır, her şey gayet düzgün ve akıcıydı",,125863
34,overinformativeness,lighter_big_white,lighter,4209,\nbeyaz çakmak,Chrome,Windows,900,1600,türkçe,1,Yes,32,Male,3,"Zannediyorum ki, ilk başta gösterilen fotoğraflara verilen düz cevapların, daha sonra yine benzer fotoların farklı renk ve desenlerde olması nedeniyle, verilen cevapların daha spesifik ve tanımlayıcı hale gelmesiyle ilgi bir deney. ","hayır, her şey gayet düzgün ve akıcıydı",,125863
35,overinformativeness,mirror_big_white,mirror,5095,\nbeyaz ayna,Chrome,Windows,900,1600,türkçe,1,Yes,32,Male,3,"Zannediyorum ki, ilk başta gösterilen fotoğraflara verilen düz cevapların, daha sonra yine benzer fotoların farklı renk ve desenlerde olması nedeniyle, verilen cevapların daha spesifik ve tanımlayıcı hale gelmesiyle ilgi bir deney. ","hayır, her şey gayet düzgün ve akıcıydı",,125863
36,adjective_ordering,picture_colored_rectangular,picture,5888,tablo,Chrome,Windows,900,1600,türkçe,1,Yes,32,Male,3,"Zannediyorum ki, ilk başta gösterilen fotoğraflara verilen düz cevapların, daha sonra yine benzer fotoların farklı renk ve desenlerde olması nedeniyle, verilen cevapların daha spesifik ve tanımlayıcı hale gelmesiyle ilgi bir deney. ","hayır, her şey gayet düzgün ve akıcıydı",,125863
37,overinformativeness,clock_big_purple,clock,5562,mor çalar saat,Chrome,Windows,900,1600,türkçe,1,Yes,32,Male,3,"Zannediyorum ki, ilk başta gösterilen fotoğraflara verilen düz cevapların, daha sonra yine benzer fotoların farklı renk ve desenlerde olması nedeniyle, verilen cevapların daha spesifik ve tanımlayıcı hale gelmesiyle ilgi bir deney. ","hayır, her şey gayet düzgün ve akıcıydı",,125863
38,overinformativeness,pepper_big_red,pepper,7416,kırmızı yağ biberi,Chrome,Windows,900,1600,türkçe,1,Yes,32,Male,3,"Zannediyorum ki, ilk başta gösterilen fotoğraflara verilen düz cevapların, daha sonra yine benzer fotoların farklı renk ve desenlerde olması nedeniyle, verilen cevapların daha spesifik ve tanımlayıcı hale gelmesiyle ilgi bir deney. ","hayır, her şey gayet düzgün ve akıcıydı",,125863
39,adjective_ordering,nails_red_glossy,nail_polish,20259,kırmızı ojeli el,Chrome,Windows,900,1600,türkçe,1,Yes,32,Male,3,"Zannediyorum ki, ilk başta gösterilen fotoğraflara verilen düz cevapların, daha sonra yine benzer fotoların farklı renk ve desenlerde olması nedeniyle, verilen cevapların daha spesifik ve tanımlayıcı hale gelmesiyle ilgi bir deney. ","hayır, her şey gayet düzgün ve akıcıydı",,125863
40,overinformativeness,book_big_blue,book,7943,mavi defter,Chrome,Windows,900,1600,türkçe,1,Yes,32,Male,3,"Zannediyorum ki, ilk başta gösterilen fotoğraflara verilen düz cevapların, daha sonra yine benzer fotoların farklı renk ve desenlerde olması nedeniyle, verilen cevapların daha spesifik ve tanımlayıcı hale gelmesiyle ilgi bir deney. ","hayır, her şey gayet düzgün ve akıcıydı",,125863
41,overinformativeness,mirror_big_black,mirror,5112,siyah ayna,Chrome,Windows,900,1600,türkçe,1,Yes,32,Male,3,"Zannediyorum ki, ilk başta gösterilen fotoğraflara verilen düz cevapların, daha sonra yine benzer fotoların farklı renk ve desenlerde olması nedeniyle, verilen cevapların daha spesifik ve tanımlayıcı hale gelmesiyle ilgi bir deney. ","hayır, her şey gayet düzgün ve akıcıydı",,125863
42,overinformativeness,cat_big_black,cat,4753,kara kedi,Chrome,Windows,900,1600,türkçe,1,Yes,32,Male,3,"Zannediyorum ki, ilk başta gösterilen fotoğraflara verilen düz cevapların, daha sonra yine benzer fotoların farklı renk ve desenlerde olması nedeniyle, verilen cevapların daha spesifik ve tanımlayıcı hale gelmesiyle ilgi bir deney. ","hayır, her şey gayet düzgün ve akıcıydı",,125863
43,overinformativeness,car_big_green,car,17008,yeşil oyuncak Mini,Chrome,Windows,900,1600,türkçe,1,Yes,32,Male,3,"Zannediyorum ki, ilk başta gösterilen fotoğraflara verilen düz cevapların, daha sonra yine benzer fotoların farklı renk ve desenlerde olması nedeniyle, verilen cevapların daha spesifik ve tanımlayıcı hale gelmesiyle ilgi bir deney. ","hayır, her şey gayet düzgün ve akıcıydı",,125863
44,overinformativeness,scissors_big_blue,scissors,5201,mavi makas,Chrome,Windows,900,1600,türkçe,1,Yes,32,Male,3,"Zannediyorum ki, ilk başta gösterilen fotoğraflara verilen düz cevapların, daha sonra yine benzer fotoların farklı renk ve desenlerde olması nedeniyle, verilen cevapların daha spesifik ve tanımlayıcı hale gelmesiyle ilgi bir deney. ","hayır, her şey gayet düzgün ve akıcıydı",,125863
45,adjective_ordering,hair_curly_blonde,hair,12962,uzun dalgalı sarı saç,Chrome,Windows,900,1600,türkçe,1,Yes,32,Male,3,"Zannediyorum ki, ilk başta gösterilen fotoğraflara verilen düz cevapların, daha sonra yine benzer fotoların farklı renk ve desenlerde olması nedeniyle, verilen cevapların daha spesifik ve tanımlayıcı hale gelmesiyle ilgi bir deney. ","hayır, her şey gayet düzgün ve akıcıydı",,125863
46,adjective_ordering,spoon_wooden_clean,spoon,7168,tahta kaşık,Chrome,Windows,900,1600,türkçe,1,Yes,32,Male,3,"Zannediyorum ki, ilk başta gösterilen fotoğraflara verilen düz cevapların, daha sonra yine benzer fotoların farklı renk ve desenlerde olması nedeniyle, verilen cevapların daha spesifik ve tanımlayıcı hale gelmesiyle ilgi bir deney. ","hayır, her şey gayet düzgün ve akıcıydı",,125863
47,adjective_ordering,woman_young_sad,woman,15354,üzgün ağlamaklı kadın sureti,Chrome,Windows,900,1600,türkçe,1,Yes,32,Male,3,"Zannediyorum ki, ilk başta gösterilen fotoğraflara verilen düz cevapların, daha sonra yine benzer fotoların farklı renk ve desenlerde olması nedeniyle, verilen cevapların daha spesifik ve tanımlayıcı hale gelmesiyle ilgi bir deney. ","hayır, her şey gayet düzgün ve akıcıydı",,125863
48,adjective_ordering,earring_small_triangular,earring,17346,piramit şeklinde sarı küpe,Chrome,Windows,900,1600,türkçe,1,Yes,32,Male,3,"Zannediyorum ki, ilk başta gösterilen fotoğraflara verilen düz cevapların, daha sonra yine benzer fotoların farklı renk ve desenlerde olması nedeniyle, verilen cevapların daha spesifik ve tanımlayıcı hale gelmesiyle ilgi bir deney. ","hayır, her şey gayet düzgün ve akıcıydı",,125863
49,overinformativeness,scissors_big_green,scissors,4897,yeşil makas,Chrome,Windows,900,1600,türkçe,1,Yes,32,Male,3,"Zannediyorum ki, ilk başta gösterilen fotoğraflara verilen düz cevapların, daha sonra yine benzer fotoların farklı renk ve desenlerde olması nedeniyle, verilen cevapların daha spesifik ve tanımlayıcı hale gelmesiyle ilgi bir deney. ","hayır, her şey gayet düzgün ve akıcıydı",,125863
50,overinformativeness,brush_big_red,brush,14513,kırmızı fırça,Chrome,Windows,900,1600,türkçe,1,Yes,32,Male,3,"Zannediyorum ki, ilk başta gösterilen fotoğraflara verilen düz cevapların, daha sonra yine benzer fotoların farklı renk ve desenlerde olması nedeniyle, verilen cevapların daha spesifik ve tanımlayıcı hale gelmesiyle ilgi bir deney. ","hayır, her şey gayet düzgün ve akıcıydı",,125863
51,overinformativeness,rosary_big_yellow,rosary,11961,kahverengi tespih,Chrome,Windows,900,1600,türkçe,1,Yes,32,Male,3,"Zannediyorum ki, ilk başta gösterilen fotoğraflara verilen düz cevapların, daha sonra yine benzer fotoların farklı renk ve desenlerde olması nedeniyle, verilen cevapların daha spesifik ve tanımlayıcı hale gelmesiyle ilgi bir deney. ","hayır, her şey gayet düzgün ve akıcıydı",,125863
52,overinformativeness,flower_big_pink,flower,13040,bordo çiçek,Chrome,Windows,900,1600,türkçe,1,Yes,32,Male,3,"Zannediyorum ki, ilk başta gösterilen fotoğraflara verilen düz cevapların, daha sonra yine benzer fotoların farklı renk ve desenlerde olması nedeniyle, verilen cevapların daha spesifik ve tanımlayıcı hale gelmesiyle ilgi bir deney. ","hayır, her şey gayet düzgün ve akıcıydı",,125863
53,overinformativeness,knife_big_red,knife,8450,kırmızı meyve bıçağı,Chrome,Windows,900,1600,türkçe,1,Yes,32,Male,3,"Zannediyorum ki, ilk başta gösterilen fotoğraflara verilen düz cevapların, daha sonra yine benzer fotoların farklı renk ve desenlerde olması nedeniyle, verilen cevapların daha spesifik ve tanımlayıcı hale gelmesiyle ilgi bir deney. ","hayır, her şey gayet düzgün ve akıcıydı",,125863
54,overinformativeness,shoe_big_pink,shoe,10183,pembe bez ayakkabı,Chrome,Windows,900,1600,türkçe,1,Yes,32,Male,3,"Zannediyorum ki, ilk başta gösterilen fotoğraflara verilen düz cevapların, daha sonra yine benzer fotoların farklı renk ve desenlerde olması nedeniyle, verilen cevapların daha spesifik ve tanımlayıcı hale gelmesiyle ilgi bir deney. ","hayır, her şey gayet düzgün ve akıcıydı",,125863
55,adjective_ordering,woman2_sad_fat,woman2,33365,şaşırmış kadın sureti,Chrome,Windows,900,1600,türkçe,1,Yes,32,Male,3,"Zannediyorum ki, ilk başta gösterilen fotoğraflara verilen düz cevapların, daha sonra yine benzer fotoların farklı renk ve desenlerde olması nedeniyle, verilen cevapların daha spesifik ve tanımlayıcı hale gelmesiyle ilgi bir deney. ","hayır, her şey gayet düzgün ve akıcıydı",,125863
56,overinformativeness,glove_big_orange,glove,7168,kırmızı eldiven,Chrome,Windows,900,1600,türkçe,1,Yes,32,Male,3,"Zannediyorum ki, ilk başta gösterilen fotoğraflara verilen düz cevapların, daha sonra yine benzer fotoların farklı renk ve desenlerde olması nedeniyle, verilen cevapların daha spesifik ve tanımlayıcı hale gelmesiyle ilgi bir deney. ","hayır, her şey gayet düzgün ve akıcıydı",,125863
57,overinformativeness,car_big_blue,car,10058,mavi oyuncak Mini araba,Chrome,Windows,900,1600,türkçe,1,Yes,32,Male,3,"Zannediyorum ki, ilk başta gösterilen fotoğraflara verilen düz cevapların, daha sonra yine benzer fotoların farklı renk ve desenlerde olması nedeniyle, verilen cevapların daha spesifik ve tanımlayıcı hale gelmesiyle ilgi bir deney. ","hayır, her şey gayet düzgün ve akıcıydı",,125863
58,adjective_ordering,pencil_long_black,pencil,6999,siyah kalem,Chrome,Windows,900,1600,türkçe,1,Yes,32,Male,3,"Zannediyorum ki, ilk başta gösterilen fotoğraflara verilen düz cevapların, daha sonra yine benzer fotoların farklı renk ve desenlerde olması nedeniyle, verilen cevapların daha spesifik ve tanımlayıcı hale gelmesiyle ilgi bir deney. ","hayır, her şey gayet düzgün ve akıcıydı",,125863
59,overinformativeness,tie_big_blue,tie,17737,mavi - beyaz çizgili kıravat,Chrome,Windows,900,1600,türkçe,1,Yes,32,Male,3,"Zannediyorum ki, ilk başta gösterilen fotoğraflara verilen düz cevapların, daha sonra yine benzer fotoların farklı renk ve desenlerde olması nedeniyle, verilen cevapların daha spesifik ve tanımlayıcı hale gelmesiyle ilgi bir deney. ","hayır, her şey gayet düzgün ve akıcıydı",,125863
60,overinformativeness,lock_big_gold,lock,7464,asma kilit,Chrome,Windows,900,1600,türkçe,1,Yes,32,Male,3,"Zannediyorum ki, ilk başta gösterilen fotoğraflara verilen düz cevapların, daha sonra yine benzer fotoların farklı renk ve desenlerde olması nedeniyle, verilen cevapların daha spesifik ve tanımlayıcı hale gelmesiyle ilgi bir deney. ","hayır, her şey gayet düzgün ve akıcıydı",,125863
61,overinformativeness,pants_big_pink,pants,7345,mor pantalon,Chrome,Windows,900,1600,türkçe,1,Yes,32,Male,3,"Zannediyorum ki, ilk başta gösterilen fotoğraflara verilen düz cevapların, daha sonra yine benzer fotoların farklı renk ve desenlerde olması nedeniyle, verilen cevapların daha spesifik ve tanımlayıcı hale gelmesiyle ilgi bir deney. ","hayır, her şey gayet düzgün ve akıcıydı",,125863
62,overinformativeness,bag_big_blue,bag,7419,mavi sırt çantası,Chrome,Windows,900,1600,türkçe,1,Yes,32,Male,3,"Zannediyorum ki, ilk başta gösterilen fotoğraflara verilen düz cevapların, daha sonra yine benzer fotoların farklı renk ve desenlerde olması nedeniyle, verilen cevapların daha spesifik ve tanımlayıcı hale gelmesiyle ilgi bir deney. ","hayır, her şey gayet düzgün ve akıcıydı",,125863
63,adjective_ordering,man2_bearded_glassed,man2,17447,photoshoplu genç erkek sureti,Chrome,Windows,900,1600,türkçe,1,Yes,32,Male,3,"Zannediyorum ki, ilk başta gösterilen fotoğraflara verilen düz cevapların, daha sonra yine benzer fotoların farklı renk ve desenlerde olması nedeniyle, verilen cevapların daha spesifik ve tanımlayıcı hale gelmesiyle ilgi bir deney. ","hayır, her şey gayet düzgün ve akıcıydı",,125863
64,overinformativeness,bag_big_red,bag,7633,kırmızı sırt çantası,Chrome,Windows,900,1600,türkçe,1,Yes,32,Male,3,"Zannediyorum ki, ilk başta gösterilen fotoğraflara verilen düz cevapların, daha sonra yine benzer fotoların farklı renk ve desenlerde olması nedeniyle, verilen cevapların daha spesifik ve tanımlayıcı hale gelmesiyle ilgi bir deney. ","hayır, her şey gayet düzgün ve akıcıydı",,125863
65,overinformativeness,glove_big_green,glove,5265,yeşil eldiven,Chrome,Windows,900,1600,türkçe,1,Yes,32,Male,3,"Zannediyorum ki, ilk başta gösterilen fotoğraflara verilen düz cevapların, daha sonra yine benzer fotoların farklı renk ve desenlerde olması nedeniyle, verilen cevapların daha spesifik ve tanımlayıcı hale gelmesiyle ilgi bir deney. ","hayır, her şey gayet düzgün ve akıcıydı",,125863
66,overinformativeness,chair_big_yellow,chair,4873,sarı sandalye,Chrome,Windows,900,1600,türkçe,1,Yes,32,Male,3,"Zannediyorum ki, ilk başta gösterilen fotoğraflara verilen düz cevapların, daha sonra yine benzer fotoların farklı renk ve desenlerde olması nedeniyle, verilen cevapların daha spesifik ve tanımlayıcı hale gelmesiyle ilgi bir deney. ","hayır, her şey gayet düzgün ve akıcıydı",,125863
67,overinformativeness,tie_big_red,tie,8936,kırmızı - beyaz çizgili kıravat,Chrome,Windows,900,1600,türkçe,1,Yes,32,Male,3,"Zannediyorum ki, ilk başta gösterilen fotoğraflara verilen düz cevapların, daha sonra yine benzer fotoların farklı renk ve desenlerde olması nedeniyle, verilen cevapların daha spesifik ve tanımlayıcı hale gelmesiyle ilgi bir deney. ","hayır, her şey gayet düzgün ve akıcıydı",,125863
68,overinformativeness,toothbrush_big_green,toothbrush,8241,yeşil diş fırçası,Chrome,Windows,900,1600,türkçe,1,Yes,32,Male,3,"Zannediyorum ki, ilk başta gösterilen fotoğraflara verilen düz cevapların, daha sonra yine benzer fotoların farklı renk ve desenlerde olması nedeniyle, verilen cevapların daha spesifik ve tanımlayıcı hale gelmesiyle ilgi bir deney. ","hayır, her şey gayet düzgün ve akıcıydı",,125863
69,overinformativeness,tshirt_big_orange,tshirt,11520,turuncu t-shirt,Chrome,Windows,900,1600,türkçe,1,Yes,32,Male,3,"Zannediyorum ki, ilk başta gösterilen fotoğraflara verilen düz cevapların, daha sonra yine benzer fotoların farklı renk ve desenlerde olması nedeniyle, verilen cevapların daha spesifik ve tanımlayıcı hale gelmesiyle ilgi bir deney. ","hayır, her şey gayet düzgün ve akıcıydı",,125863
70,overinformativeness,pot_big_blue,pot,7880,mavi tencere,Chrome,Windows,900,1600,türkçe,1,Yes,32,Male,3,"Zannediyorum ki, ilk başta gösterilen fotoğraflara verilen düz cevapların, daha sonra yine benzer fotoların farklı renk ve desenlerde olması nedeniyle, verilen cevapların daha spesifik ve tanımlayıcı hale gelmesiyle ilgi bir deney. ","hayır, her şey gayet düzgün ve akıcıydı",,125863
71,overinformativeness,glasses_big_blue,glasses,4848,mavi gözlük,Chrome,Windows,900,1600,türkçe,1,Yes,32,Male,3,"Zannediyorum ki, ilk başta gösterilen fotoğraflara verilen düz cevapların, daha sonra yine benzer fotoların farklı renk ve desenlerde olması nedeniyle, verilen cevapların daha spesifik ve tanımlayıcı hale gelmesiyle ilgi bir deney. ","hayır, her şey gayet düzgün ve akıcıydı",,125863
72,adjective_ordering,table_wood_low,table,5625,ahşap masa,Chrome,Windows,900,1600,türkçe,1,Yes,32,Male,3,"Zannediyorum ki, ilk başta gösterilen fotoğraflara verilen düz cevapların, daha sonra yine benzer fotoların farklı renk ve desenlerde olması nedeniyle, verilen cevapların daha spesifik ve tanımlayıcı hale gelmesiyle ilgi bir deney. ","hayır, her şey gayet düzgün ve akıcıydı",,125863
73,overinformativeness,button_big_green,button,7753,yeşil düğme,Chrome,Windows,900,1600,türkçe,1,Yes,32,Male,3,"Zannediyorum ki, ilk başta gösterilen fotoğraflara verilen düz cevapların, daha sonra yine benzer fotoların farklı renk ve desenlerde olması nedeniyle, verilen cevapların daha spesifik ve tanımlayıcı hale gelmesiyle ilgi bir deney. ","hayır, her şey gayet düzgün ve akıcıydı",,125863
74,overinformativeness,dress_big_blue,dress,18490,mavi uzun kadın elbisesi,Chrome,Windows,900,1600,türkçe,1,Yes,32,Male,3,"Zannediyorum ki, ilk başta gösterilen fotoğraflara verilen düz cevapların, daha sonra yine benzer fotoların farklı renk ve desenlerde olması nedeniyle, verilen cevapların daha spesifik ve tanımlayıcı hale gelmesiyle ilgi bir deney. ","hayır, her şey gayet düzgün ve akıcıydı",,125863
75,adjective_ordering,man_old_bearded,man,19330,sakal photoshoplu kel erkek sureti,Chrome,Windows,900,1600,türkçe,1,Yes,32,Male,3,"Zannediyorum ki, ilk başta gösterilen fotoğraflara verilen düz cevapların, daha sonra yine benzer fotoların farklı renk ve desenlerde olması nedeniyle, verilen cevapların daha spesifik ve tanımlayıcı hale gelmesiyle ilgi bir deney. ","hayır, her şey gayet düzgün ve akıcıydı",,125863
76,overinformativeness,lipstick_big_red,lipstick,5096,kırmızı ruj,Chrome,Windows,900,1600,türkçe,1,Yes,32,Male,3,"Zannediyorum ki, ilk başta gösterilen fotoğraflara verilen düz cevapların, daha sonra yine benzer fotoların farklı renk ve desenlerde olması nedeniyle, verilen cevapların daha spesifik ve tanımlayıcı hale gelmesiyle ilgi bir deney. ","hayır, her şey gayet düzgün ve akıcıydı",,125863
77,overinformativeness,pepper_big_green,pepper,55310,yeşil dolmalık biber,Chrome,Windows,900,1600,türkçe,1,Yes,32,Male,3,"Zannediyorum ki, ilk başta gösterilen fotoğraflara verilen düz cevapların, daha sonra yine benzer fotoların farklı renk ve desenlerde olması nedeniyle, verilen cevapların daha spesifik ve tanımlayıcı hale gelmesiyle ilgi bir deney. ","hayır, her şey gayet düzgün ve akıcıydı",,125863
78,overinformativeness,skirt_big_green,skirt,12409,yeşil uzun etek,Chrome,Windows,900,1600,türkçe,1,Yes,32,Male,3,"Zannediyorum ki, ilk başta gösterilen fotoğraflara verilen düz cevapların, daha sonra yine benzer fotoların farklı renk ve desenlerde olması nedeniyle, verilen cevapların daha spesifik ve tanımlayıcı hale gelmesiyle ilgi bir deney. ","hayır, her şey gayet düzgün ve akıcıydı",,125863
79,overinformativeness,pants_big_green,pants,5209,yeşil pantolon,Chrome,Windows,900,1600,türkçe,1,Yes,32,Male,3,"Zannediyorum ki, ilk başta gösterilen fotoğraflara verilen düz cevapların, daha sonra yine benzer fotoların farklı renk ve desenlerde olması nedeniyle, verilen cevapların daha spesifik ve tanımlayıcı hale gelmesiyle ilgi bir deney. ","hayır, her şey gayet düzgün ve akıcıydı",,125863
80,overinformativeness,book_big_red,book,4503,kırmızı defter,Chrome,Windows,900,1600,türkçe,1,Yes,32,Male,3,"Zannediyorum ki, ilk başta gösterilen fotoğraflara verilen düz cevapların, daha sonra yine benzer fotoların farklı renk ve desenlerde olması nedeniyle, verilen cevapların daha spesifik ve tanımlayıcı hale gelmesiyle ilgi bir deney. ","hayır, her şey gayet düzgün ve akıcıydı",,125863
81,overinformativeness,dress_big_green,dress,7505,yeşil uzun kadın elbisesi,Chrome,Windows,900,1600,türkçe,1,Yes,32,Male,3,"Zannediyorum ki, ilk başta gösterilen fotoğraflara verilen düz cevapların, daha sonra yine benzer fotoların farklı renk ve desenlerde olması nedeniyle, verilen cevapların daha spesifik ve tanımlayıcı hale gelmesiyle ilgi bir deney. ","hayır, her şey gayet düzgün ve akıcıydı",,125863
82,overinformativeness,key_big_silver,key,3688,anahtar,Chrome,Windows,900,1600,türkçe,1,Yes,32,Male,3,"Zannediyorum ki, ilk başta gösterilen fotoğraflara verilen düz cevapların, daha sonra yine benzer fotoların farklı renk ve desenlerde olması nedeniyle, verilen cevapların daha spesifik ve tanımlayıcı hale gelmesiyle ilgi bir deney. ","hayır, her şey gayet düzgün ve akıcıydı",,125863
83,overinformativeness,tshirt_big_yellow,tshirt,7881,sarı t-shirt,Chrome,Windows,900,1600,türkçe,1,Yes,32,Male,3,"Zannediyorum ki, ilk başta gösterilen fotoğraflara verilen düz cevapların, daha sonra yine benzer fotoların farklı renk ve desenlerde olması nedeniyle, verilen cevapların daha spesifik ve tanımlayıcı hale gelmesiyle ilgi bir deney. ","hayır, her şey gayet düzgün ve akıcıydı",,125863
84,overinformativeness,lipstick_big_pink,lipstick,8465,pembe ruj,Chrome,Windows,900,1600,türkçe,1,Yes,32,Male,3,"Zannediyorum ki, ilk başta gösterilen fotoğraflara verilen düz cevapların, daha sonra yine benzer fotoların farklı renk ve desenlerde olması nedeniyle, verilen cevapların daha spesifik ve tanımlayıcı hale gelmesiyle ilgi bir deney. ","hayır, her şey gayet düzgün ve akıcıydı",,125863
85,adjective_ordering,frog_spotted_green,frog,14369,benekli yeşil kurbağa,Chrome,Windows,900,1600,türkçe,1,Yes,32,Male,3,"Zannediyorum ki, ilk başta gösterilen fotoğraflara verilen düz cevapların, daha sonra yine benzer fotoların farklı renk ve desenlerde olması nedeniyle, verilen cevapların daha spesifik ve tanımlayıcı hale gelmesiyle ilgi bir deney. ","hayır, her şey gayet düzgün ve akıcıydı",,125863
86,overinformativeness,umbrella_big_green,umbrella,10273,yeşil şemsiye,Chrome,Windows,900,1600,türkçe,1,Yes,32,Male,3,"Zannediyorum ki, ilk başta gösterilen fotoğraflara verilen düz cevapların, daha sonra yine benzer fotoların farklı renk ve desenlerde olması nedeniyle, verilen cevapların daha spesifik ve tanımlayıcı hale gelmesiyle ilgi bir deney. ","hayır, her şey gayet düzgün ve akıcıydı",,125863
87,overinformativeness,rosary_big_blue,rosary,8337,mavi tespih,Chrome,Windows,900,1600,türkçe,1,Yes,32,Male,3,"Zannediyorum ki, ilk başta gösterilen fotoğraflara verilen düz cevapların, daha sonra yine benzer fotoların farklı renk ve desenlerde olması nedeniyle, verilen cevapların daha spesifik ve tanımlayıcı hale gelmesiyle ilgi bir deney. ","hayır, her şey gayet düzgün ve akıcıydı",,125863
88,overinformativeness,socks_big_blue,socks,5112,mavi çorap,Chrome,Windows,900,1600,türkçe,1,Yes,32,Male,3,"Zannediyorum ki, ilk başta gösterilen fotoğraflara verilen düz cevapların, daha sonra yine benzer fotoların farklı renk ve desenlerde olması nedeniyle, verilen cevapların daha spesifik ve tanımlayıcı hale gelmesiyle ilgi bir deney. ","hayır, her şey gayet düzgün ve akıcıydı",,125863
