slide_number_in_experiment,trial_type,label,object,rt,response,Browser,OS,screenH,screenW,language,enjoyment,asses,age,gender,education,comments,problems,fairprice,participant_id
1,bot_check,,beyaz,0,beyaz,Chrome,Windows,864,1536,Türkçe,-1,Confused,29,Female,4,,Başlarda sadece nesneyi yazdım fakat daha sonra nesnelerı betımlemem gerektiğini de düşündüm. Bir de Türkçe karakterleri girmekte hata yapmış olabilirim. Ya da beklediğinizden daha uzun bir sürede tamamlamış olablirim. Klavyem Türkçe değil ve harflerin yerini hatırlamakta zorluk çekiyorum. ,0.25 GBP,420296
3,overinformativeness,hat_big_orange,hat,6511,Şapka,Chrome,Windows,864,1536,Türkçe,-1,Confused,29,Female,4,,Başlarda sadece nesneyi yazdım fakat daha sonra nesnelerı betımlemem gerektiğini de düşündüm. Bir de Türkçe karakterleri girmekte hata yapmış olabilirim. Ya da beklediğinizden daha uzun bir sürede tamamlamış olablirim. Klavyem Türkçe değil ve harflerin yerini hatırlamakta zorluk çekiyorum. ,0.25 GBP,420296
4,overinformativeness,binoculars_big_red,binoculars,8976,dürbün,Chrome,Windows,864,1536,Türkçe,-1,Confused,29,Female,4,,Başlarda sadece nesneyi yazdım fakat daha sonra nesnelerı betımlemem gerektiğini de düşündüm. Bir de Türkçe karakterleri girmekte hata yapmış olabilirim. Ya da beklediğinizden daha uzun bir sürede tamamlamış olablirim. Klavyem Türkçe değil ve harflerin yerini hatırlamakta zorluk çekiyorum. ,0.25 GBP,420296
5,adjective_ordering,man2_mustached_hatted,man2,12509,\nŞapkalı adam,Chrome,Windows,864,1536,Türkçe,-1,Confused,29,Female,4,,Başlarda sadece nesneyi yazdım fakat daha sonra nesnelerı betımlemem gerektiğini de düşündüm. Bir de Türkçe karakterleri girmekte hata yapmış olabilirim. Ya da beklediğinizden daha uzun bir sürede tamamlamış olablirim. Klavyem Türkçe değil ve harflerin yerini hatırlamakta zorluk çekiyorum. ,0.25 GBP,420296
6,overinformativeness,chair_big_yellow,chair,3620,\nSandalye,Chrome,Windows,864,1536,Türkçe,-1,Confused,29,Female,4,,Başlarda sadece nesneyi yazdım fakat daha sonra nesnelerı betımlemem gerektiğini de düşündüm. Bir de Türkçe karakterleri girmekte hata yapmış olabilirim. Ya da beklediğinizden daha uzun bir sürede tamamlamış olablirim. Klavyem Türkçe değil ve harflerin yerini hatırlamakta zorluk çekiyorum. ,0.25 GBP,420296
7,overinformativeness,pepper_big_red,pepper,6786,\nKırmızı Biber,Chrome,Windows,864,1536,Türkçe,-1,Confused,29,Female,4,,Başlarda sadece nesneyi yazdım fakat daha sonra nesnelerı betımlemem gerektiğini de düşündüm. Bir de Türkçe karakterleri girmekte hata yapmış olabilirim. Ya da beklediğinizden daha uzun bir sürede tamamlamış olablirim. Klavyem Türkçe değil ve harflerin yerini hatırlamakta zorluk çekiyorum. ,0.25 GBP,420296
8,overinformativeness,tshirt_big_yellow,tshirt,8123,\nT-shirt,Chrome,Windows,864,1536,Türkçe,-1,Confused,29,Female,4,,Başlarda sadece nesneyi yazdım fakat daha sonra nesnelerı betımlemem gerektiğini de düşündüm. Bir de Türkçe karakterleri girmekte hata yapmış olabilirim. Ya da beklediğinizden daha uzun bir sürede tamamlamış olablirim. Klavyem Türkçe değil ve harflerin yerini hatırlamakta zorluk çekiyorum. ,0.25 GBP,420296
9,overinformativeness,cat_big_black,cat,3404,\nKedş,Chrome,Windows,864,1536,Türkçe,-1,Confused,29,Female,4,,Başlarda sadece nesneyi yazdım fakat daha sonra nesnelerı betımlemem gerektiğini de düşündüm. Bir de Türkçe karakterleri girmekte hata yapmış olabilirim. Ya da beklediğinizden daha uzun bir sürede tamamlamış olablirim. Klavyem Türkçe değil ve harflerin yerini hatırlamakta zorluk çekiyorum. ,0.25 GBP,420296
10,overinformativeness,glasses_big_blue,glasses,4847,\nGözlük,Chrome,Windows,864,1536,Türkçe,-1,Confused,29,Female,4,,Başlarda sadece nesneyi yazdım fakat daha sonra nesnelerı betımlemem gerektiğini de düşündüm. Bir de Türkçe karakterleri girmekte hata yapmış olabilirim. Ya da beklediğinizden daha uzun bir sürede tamamlamış olablirim. Klavyem Türkçe değil ve harflerin yerini hatırlamakta zorluk çekiyorum. ,0.25 GBP,420296
11,overinformativeness,rosary_big_yellow,rosary,4832,\nTesbih,Chrome,Windows,864,1536,Türkçe,-1,Confused,29,Female,4,,Başlarda sadece nesneyi yazdım fakat daha sonra nesnelerı betımlemem gerektiğini de düşündüm. Bir de Türkçe karakterleri girmekte hata yapmış olabilirim. Ya da beklediğinizden daha uzun bir sürede tamamlamış olablirim. Klavyem Türkçe değil ve harflerin yerini hatırlamakta zorluk çekiyorum. ,0.25 GBP,420296
12,overinformativeness,glove_big_orange,glove,4142,\nEldiven,Chrome,Windows,864,1536,Türkçe,-1,Confused,29,Female,4,,Başlarda sadece nesneyi yazdım fakat daha sonra nesnelerı betımlemem gerektiğini de düşündüm. Bir de Türkçe karakterleri girmekte hata yapmış olabilirim. Ya da beklediğinizden daha uzun bir sürede tamamlamış olablirim. Klavyem Türkçe değil ve harflerin yerini hatırlamakta zorluk çekiyorum. ,0.25 GBP,420296
13,overinformativeness,balloon_big_yellow,balloon,3237,\nBalon,Chrome,Windows,864,1536,Türkçe,-1,Confused,29,Female,4,,Başlarda sadece nesneyi yazdım fakat daha sonra nesnelerı betımlemem gerektiğini de düşündüm. Bir de Türkçe karakterleri girmekte hata yapmış olabilirim. Ya da beklediğinizden daha uzun bir sürede tamamlamış olablirim. Klavyem Türkçe değil ve harflerin yerini hatırlamakta zorluk çekiyorum. ,0.25 GBP,420296
14,adjective_ordering,bottle_glass_big,bottle,3795,\nŞişe,Chrome,Windows,864,1536,Türkçe,-1,Confused,29,Female,4,,Başlarda sadece nesneyi yazdım fakat daha sonra nesnelerı betımlemem gerektiğini de düşündüm. Bir de Türkçe karakterleri girmekte hata yapmış olabilirim. Ya da beklediğinizden daha uzun bir sürede tamamlamış olablirim. Klavyem Türkçe değil ve harflerin yerini hatırlamakta zorluk çekiyorum. ,0.25 GBP,420296
15,overinformativeness,rosary_big_blue,rosary,4193,\nTesbih,Chrome,Windows,864,1536,Türkçe,-1,Confused,29,Female,4,,Başlarda sadece nesneyi yazdım fakat daha sonra nesnelerı betımlemem gerektiğini de düşündüm. Bir de Türkçe karakterleri girmekte hata yapmış olabilirim. Ya da beklediğinizden daha uzun bir sürede tamamlamış olablirim. Klavyem Türkçe değil ve harflerin yerini hatırlamakta zorluk çekiyorum. ,0.25 GBP,420296
16,adjective_ordering,cup_full_metal,cup,5972,\nBardak,Chrome,Windows,864,1536,Türkçe,-1,Confused,29,Female,4,,Başlarda sadece nesneyi yazdım fakat daha sonra nesnelerı betımlemem gerektiğini de düşündüm. Bir de Türkçe karakterleri girmekte hata yapmış olabilirim. Ya da beklediğinizden daha uzun bir sürede tamamlamış olablirim. Klavyem Türkçe değil ve harflerin yerini hatırlamakta zorluk çekiyorum. ,0.25 GBP,420296
17,adjective_ordering,shorts_wet_green,shorts,4045,\nŞort,Chrome,Windows,864,1536,Türkçe,-1,Confused,29,Female,4,,Başlarda sadece nesneyi yazdım fakat daha sonra nesnelerı betımlemem gerektiğini de düşündüm. Bir de Türkçe karakterleri girmekte hata yapmış olabilirim. Ya da beklediğinizden daha uzun bir sürede tamamlamış olablirim. Klavyem Türkçe değil ve harflerin yerini hatırlamakta zorluk çekiyorum. ,0.25 GBP,420296
18,overinformativeness,tie_big_blue,tie,10090,\nKravat,Chrome,Windows,864,1536,Türkçe,-1,Confused,29,Female,4,,Başlarda sadece nesneyi yazdım fakat daha sonra nesnelerı betımlemem gerektiğini de düşündüm. Bir de Türkçe karakterleri girmekte hata yapmış olabilirim. Ya da beklediğinizden daha uzun bir sürede tamamlamış olablirim. Klavyem Türkçe değil ve harflerin yerini hatırlamakta zorluk çekiyorum. ,0.25 GBP,420296
19,adjective_ordering,box_open_wood,box,8634,Kutu,Chrome,Windows,864,1536,Türkçe,-1,Confused,29,Female,4,,Başlarda sadece nesneyi yazdım fakat daha sonra nesnelerı betımlemem gerektiğini de düşündüm. Bir de Türkçe karakterleri girmekte hata yapmış olabilirim. Ya da beklediğinizden daha uzun bir sürede tamamlamış olablirim. Klavyem Türkçe değil ve harflerin yerini hatırlamakta zorluk çekiyorum. ,0.25 GBP,420296
20,overinformativeness,knife_big_red,knife,5815,\nBıçak,Chrome,Windows,864,1536,Türkçe,-1,Confused,29,Female,4,,Başlarda sadece nesneyi yazdım fakat daha sonra nesnelerı betımlemem gerektiğini de düşündüm. Bir de Türkçe karakterleri girmekte hata yapmış olabilirim. Ya da beklediğinizden daha uzun bir sürede tamamlamış olablirim. Klavyem Türkçe değil ve harflerin yerini hatırlamakta zorluk çekiyorum. ,0.25 GBP,420296
21,overinformativeness,umbrella_big_green,umbrella,4130,\nŞemsiye,Chrome,Windows,864,1536,Türkçe,-1,Confused,29,Female,4,,Başlarda sadece nesneyi yazdım fakat daha sonra nesnelerı betımlemem gerektiğini de düşündüm. Bir de Türkçe karakterleri girmekte hata yapmış olabilirim. Ya da beklediğinizden daha uzun bir sürede tamamlamış olablirim. Klavyem Türkçe değil ve harflerin yerini hatırlamakta zorluk çekiyorum. ,0.25 GBP,420296
22,overinformativeness,dress_big_green,dress,3257,\nElbise,Chrome,Windows,864,1536,Türkçe,-1,Confused,29,Female,4,,Başlarda sadece nesneyi yazdım fakat daha sonra nesnelerı betımlemem gerektiğini de düşündüm. Bir de Türkçe karakterleri girmekte hata yapmış olabilirim. Ya da beklediğinizden daha uzun bir sürede tamamlamış olablirim. Klavyem Türkçe değil ve harflerin yerini hatırlamakta zorluk çekiyorum. ,0.25 GBP,420296
23,adjective_ordering,man_young_bald,man,13792,\nAdam,Chrome,Windows,864,1536,Türkçe,-1,Confused,29,Female,4,,Başlarda sadece nesneyi yazdım fakat daha sonra nesnelerı betımlemem gerektiğini de düşündüm. Bir de Türkçe karakterleri girmekte hata yapmış olabilirim. Ya da beklediğinizden daha uzun bir sürede tamamlamış olablirim. Klavyem Türkçe değil ve harflerin yerini hatırlamakta zorluk çekiyorum. ,0.25 GBP,420296
24,overinformativeness,lipstick_big_red,lipstick,4203,\nRuj,Chrome,Windows,864,1536,Türkçe,-1,Confused,29,Female,4,,Başlarda sadece nesneyi yazdım fakat daha sonra nesnelerı betımlemem gerektiğini de düşündüm. Bir de Türkçe karakterleri girmekte hata yapmış olabilirim. Ya da beklediğinizden daha uzun bir sürede tamamlamış olablirim. Klavyem Türkçe değil ve harflerin yerini hatırlamakta zorluk çekiyorum. ,0.25 GBP,420296
25,overinformativeness,cat_big_white,cat,5370,\nKedi,Chrome,Windows,864,1536,Türkçe,-1,Confused,29,Female,4,,Başlarda sadece nesneyi yazdım fakat daha sonra nesnelerı betımlemem gerektiğini de düşündüm. Bir de Türkçe karakterleri girmekte hata yapmış olabilirim. Ya da beklediğinizden daha uzun bir sürede tamamlamış olablirim. Klavyem Türkçe değil ve harflerin yerini hatırlamakta zorluk çekiyorum. ,0.25 GBP,420296
26,overinformativeness,umbrella_big_blue,umbrella,5790,\nMavi Şemsiye,Chrome,Windows,864,1536,Türkçe,-1,Confused,29,Female,4,,Başlarda sadece nesneyi yazdım fakat daha sonra nesnelerı betımlemem gerektiğini de düşündüm. Bir de Türkçe karakterleri girmekte hata yapmış olabilirim. Ya da beklediğinizden daha uzun bir sürede tamamlamış olablirim. Klavyem Türkçe değil ve harflerin yerini hatırlamakta zorluk çekiyorum. ,0.25 GBP,420296
27,overinformativeness,button_big_green,button,8037,\nYeşil Düğme,Chrome,Windows,864,1536,Türkçe,-1,Confused,29,Female,4,,Başlarda sadece nesneyi yazdım fakat daha sonra nesnelerı betımlemem gerektiğini de düşündüm. Bir de Türkçe karakterleri girmekte hata yapmış olabilirim. Ya da beklediğinizden daha uzun bir sürede tamamlamış olablirim. Klavyem Türkçe değil ve harflerin yerini hatırlamakta zorluk çekiyorum. ,0.25 GBP,420296
28,adjective_ordering,earring_small_round,earring,5754,\nKüpe,Chrome,Windows,864,1536,Türkçe,-1,Confused,29,Female,4,,Başlarda sadece nesneyi yazdım fakat daha sonra nesnelerı betımlemem gerektiğini de düşündüm. Bir de Türkçe karakterleri girmekte hata yapmış olabilirim. Ya da beklediğinizden daha uzun bir sürede tamamlamış olablirim. Klavyem Türkçe değil ve harflerin yerini hatırlamakta zorluk çekiyorum. ,0.25 GBP,420296
29,overinformativeness,book_big_red,book,9176,\nKırmızı ciltli kitap,Chrome,Windows,864,1536,Türkçe,-1,Confused,29,Female,4,,Başlarda sadece nesneyi yazdım fakat daha sonra nesnelerı betımlemem gerektiğini de düşündüm. Bir de Türkçe karakterleri girmekte hata yapmış olabilirim. Ya da beklediğinizden daha uzun bir sürede tamamlamış olablirim. Klavyem Türkçe değil ve harflerin yerini hatırlamakta zorluk çekiyorum. ,0.25 GBP,420296
30,adjective_ordering,pencil_short_blue,pencil,13306,\nMavi kuru boya kalemi,Chrome,Windows,864,1536,Türkçe,-1,Confused,29,Female,4,,Başlarda sadece nesneyi yazdım fakat daha sonra nesnelerı betımlemem gerektiğini de düşündüm. Bir de Türkçe karakterleri girmekte hata yapmış olabilirim. Ya da beklediğinizden daha uzun bir sürede tamamlamış olablirim. Klavyem Türkçe değil ve harflerin yerini hatırlamakta zorluk çekiyorum. ,0.25 GBP,420296
31,overinformativeness,mirror_big_black,mirror,11412,\nSiyah çerçeveli ayna,Chrome,Windows,864,1536,Türkçe,-1,Confused,29,Female,4,,Başlarda sadece nesneyi yazdım fakat daha sonra nesnelerı betımlemem gerektiğini de düşündüm. Bir de Türkçe karakterleri girmekte hata yapmış olabilirim. Ya da beklediğinizden daha uzun bir sürede tamamlamış olablirim. Klavyem Türkçe değil ve harflerin yerini hatırlamakta zorluk çekiyorum. ,0.25 GBP,420296
32,overinformativeness,shoe_big_yellow,shoe,5355,\nSarı ayakkabı,Chrome,Windows,864,1536,Türkçe,-1,Confused,29,Female,4,,Başlarda sadece nesneyi yazdım fakat daha sonra nesnelerı betımlemem gerektiğini de düşündüm. Bir de Türkçe karakterleri girmekte hata yapmış olabilirim. Ya da beklediğinizden daha uzun bir sürede tamamlamış olablirim. Klavyem Türkçe değil ve harflerin yerini hatırlamakta zorluk çekiyorum. ,0.25 GBP,420296
33,overinformativeness,book_big_blue,book,10234,\nMor ciltli kitap,Chrome,Windows,864,1536,Türkçe,-1,Confused,29,Female,4,,Başlarda sadece nesneyi yazdım fakat daha sonra nesnelerı betımlemem gerektiğini de düşündüm. Bir de Türkçe karakterleri girmekte hata yapmış olabilirim. Ya da beklediğinizden daha uzun bir sürede tamamlamış olablirim. Klavyem Türkçe değil ve harflerin yerini hatırlamakta zorluk çekiyorum. ,0.25 GBP,420296
34,overinformativeness,scissors_big_green,scissors,7344,\nYeşil saplı makas,Chrome,Windows,864,1536,Türkçe,-1,Confused,29,Female,4,,Başlarda sadece nesneyi yazdım fakat daha sonra nesnelerı betımlemem gerektiğini de düşündüm. Bir de Türkçe karakterleri girmekte hata yapmış olabilirim. Ya da beklediğinizden daha uzun bir sürede tamamlamış olablirim. Klavyem Türkçe değil ve harflerin yerini hatırlamakta zorluk çekiyorum. ,0.25 GBP,420296
35,overinformativeness,apple_big_red,apple,4789,\nKırmızı elma,Chrome,Windows,864,1536,Türkçe,-1,Confused,29,Female,4,,Başlarda sadece nesneyi yazdım fakat daha sonra nesnelerı betımlemem gerektiğini de düşündüm. Bir de Türkçe karakterleri girmekte hata yapmış olabilirim. Ya da beklediğinizden daha uzun bir sürede tamamlamış olablirim. Klavyem Türkçe değil ve harflerin yerini hatırlamakta zorluk çekiyorum. ,0.25 GBP,420296
36,adjective_ordering,woman2_sad_fat,woman2,10093,\nKadın yüzü,Chrome,Windows,864,1536,Türkçe,-1,Confused,29,Female,4,,Başlarda sadece nesneyi yazdım fakat daha sonra nesnelerı betımlemem gerektiğini de düşündüm. Bir de Türkçe karakterleri girmekte hata yapmış olabilirim. Ya da beklediğinizden daha uzun bir sürede tamamlamış olablirim. Klavyem Türkçe değil ve harflerin yerini hatırlamakta zorluk çekiyorum. ,0.25 GBP,420296
37,overinformativeness,knife_big_blue,knife,8766,\nMor saplı bıçak,Chrome,Windows,864,1536,Türkçe,-1,Confused,29,Female,4,,Başlarda sadece nesneyi yazdım fakat daha sonra nesnelerı betımlemem gerektiğini de düşündüm. Bir de Türkçe karakterleri girmekte hata yapmış olabilirim. Ya da beklediğinizden daha uzun bir sürede tamamlamış olablirim. Klavyem Türkçe değil ve harflerin yerini hatırlamakta zorluk çekiyorum. ,0.25 GBP,420296
38,overinformativeness,brush_big_red,brush,10062,\nKırmızı saplı boya fırçası,Chrome,Windows,864,1536,Türkçe,-1,Confused,29,Female,4,,Başlarda sadece nesneyi yazdım fakat daha sonra nesnelerı betımlemem gerektiğini de düşündüm. Bir de Türkçe karakterleri girmekte hata yapmış olabilirim. Ya da beklediğinizden daha uzun bir sürede tamamlamış olablirim. Klavyem Türkçe değil ve harflerin yerini hatırlamakta zorluk çekiyorum. ,0.25 GBP,420296
39,overinformativeness,apple_big_green,apple,4877,\nYeşil elma,Chrome,Windows,864,1536,Türkçe,-1,Confused,29,Female,4,,Başlarda sadece nesneyi yazdım fakat daha sonra nesnelerı betımlemem gerektiğini de düşündüm. Bir de Türkçe karakterleri girmekte hata yapmış olabilirim. Ya da beklediğinizden daha uzun bir sürede tamamlamış olablirim. Klavyem Türkçe değil ve harflerin yerini hatırlamakta zorluk çekiyorum. ,0.25 GBP,420296
40,overinformativeness,dress_big_blue,dress,10471,\nLacivert elbise,Chrome,Windows,864,1536,Türkçe,-1,Confused,29,Female,4,,Başlarda sadece nesneyi yazdım fakat daha sonra nesnelerı betımlemem gerektiğini de düşündüm. Bir de Türkçe karakterleri girmekte hata yapmış olabilirim. Ya da beklediğinizden daha uzun bir sürede tamamlamış olablirim. Klavyem Türkçe değil ve harflerin yerini hatırlamakta zorluk çekiyorum. ,0.25 GBP,420296
41,overinformativeness,chair_big_blue,chair,8495,\nMavş sandalye,Chrome,Windows,864,1536,Türkçe,-1,Confused,29,Female,4,,Başlarda sadece nesneyi yazdım fakat daha sonra nesnelerı betımlemem gerektiğini de düşündüm. Bir de Türkçe karakterleri girmekte hata yapmış olabilirim. Ya da beklediğinizden daha uzun bir sürede tamamlamış olablirim. Klavyem Türkçe değil ve harflerin yerini hatırlamakta zorluk çekiyorum. ,0.25 GBP,420296
42,adjective_ordering,hair_curly_brown,hair,16275,\nKıvırcık saç,Chrome,Windows,864,1536,Türkçe,-1,Confused,29,Female,4,,Başlarda sadece nesneyi yazdım fakat daha sonra nesnelerı betımlemem gerektiğini de düşündüm. Bir de Türkçe karakterleri girmekte hata yapmış olabilirim. Ya da beklediğinizden daha uzun bir sürede tamamlamış olablirim. Klavyem Türkçe değil ve harflerin yerini hatırlamakta zorluk çekiyorum. ,0.25 GBP,420296
43,overinformativeness,ball_big_yellow,ball,5815,\nSarı top,Chrome,Windows,864,1536,Türkçe,-1,Confused,29,Female,4,,Başlarda sadece nesneyi yazdım fakat daha sonra nesnelerı betımlemem gerektiğini de düşündüm. Bir de Türkçe karakterleri girmekte hata yapmış olabilirim. Ya da beklediğinizden daha uzun bir sürede tamamlamış olablirim. Klavyem Türkçe değil ve harflerin yerini hatırlamakta zorluk çekiyorum. ,0.25 GBP,420296
44,overinformativeness,key_big_gold,key,9495,\nAnahtar,Chrome,Windows,864,1536,Türkçe,-1,Confused,29,Female,4,,Başlarda sadece nesneyi yazdım fakat daha sonra nesnelerı betımlemem gerektiğini de düşündüm. Bir de Türkçe karakterleri girmekte hata yapmış olabilirim. Ya da beklediğinizden daha uzun bir sürede tamamlamış olablirim. Klavyem Türkçe değil ve harflerin yerini hatırlamakta zorluk çekiyorum. ,0.25 GBP,420296
45,overinformativeness,car_big_blue,car,6632,\nMavi oyuncak araba,Chrome,Windows,864,1536,Türkçe,-1,Confused,29,Female,4,,Başlarda sadece nesneyi yazdım fakat daha sonra nesnelerı betımlemem gerektiğini de düşündüm. Bir de Türkçe karakterleri girmekte hata yapmış olabilirim. Ya da beklediğinizden daha uzun bir sürede tamamlamış olablirim. Klavyem Türkçe değil ve harflerin yerini hatırlamakta zorluk çekiyorum. ,0.25 GBP,420296
46,overinformativeness,key_big_silver,key,32484,\nResmi göremiyorum,Chrome,Windows,864,1536,Türkçe,-1,Confused,29,Female,4,,Başlarda sadece nesneyi yazdım fakat daha sonra nesnelerı betımlemem gerektiğini de düşündüm. Bir de Türkçe karakterleri girmekte hata yapmış olabilirim. Ya da beklediğinizden daha uzun bir sürede tamamlamış olablirim. Klavyem Türkçe değil ve harflerin yerini hatırlamakta zorluk çekiyorum. ,0.25 GBP,420296
47,adjective_ordering,woman_young_sad,woman,17104,üzgün kadın,Chrome,Windows,864,1536,Türkçe,-1,Confused,29,Female,4,,Başlarda sadece nesneyi yazdım fakat daha sonra nesnelerı betımlemem gerektiğini de düşündüm. Bir de Türkçe karakterleri girmekte hata yapmış olabilirim. Ya da beklediğinizden daha uzun bir sürede tamamlamış olablirim. Klavyem Türkçe değil ve harflerin yerini hatırlamakta zorluk çekiyorum. ,0.25 GBP,420296
48,overinformativeness,pepper_big_green,pepper,8155,\nYeşil biber,Chrome,Windows,864,1536,Türkçe,-1,Confused,29,Female,4,,Başlarda sadece nesneyi yazdım fakat daha sonra nesnelerı betımlemem gerektiğini de düşündüm. Bir de Türkçe karakterleri girmekte hata yapmış olabilirim. Ya da beklediğinizden daha uzun bir sürede tamamlamış olablirim. Klavyem Türkçe değil ve harflerin yerini hatırlamakta zorluk çekiyorum. ,0.25 GBP,420296
49,overinformativeness,lighter_big_white,lighter,6903,\nÇakmak,Chrome,Windows,864,1536,Türkçe,-1,Confused,29,Female,4,,Başlarda sadece nesneyi yazdım fakat daha sonra nesnelerı betımlemem gerektiğini de düşündüm. Bir de Türkçe karakterleri girmekte hata yapmış olabilirim. Ya da beklediğinizden daha uzun bir sürede tamamlamış olablirim. Klavyem Türkçe değil ve harflerin yerini hatırlamakta zorluk çekiyorum. ,0.25 GBP,420296
50,overinformativeness,pot_big_blue,pot,9103,\nMavi tencere,Chrome,Windows,864,1536,Türkçe,-1,Confused,29,Female,4,,Başlarda sadece nesneyi yazdım fakat daha sonra nesnelerı betımlemem gerektiğini de düşündüm. Bir de Türkçe karakterleri girmekte hata yapmış olabilirim. Ya da beklediğinizden daha uzun bir sürede tamamlamış olablirim. Klavyem Türkçe değil ve harflerin yerini hatırlamakta zorluk çekiyorum. ,0.25 GBP,420296
51,adjective_ordering,picture_colored_rectangular,picture,12797,Duvar tablosu,Chrome,Windows,864,1536,Türkçe,-1,Confused,29,Female,4,,Başlarda sadece nesneyi yazdım fakat daha sonra nesnelerı betımlemem gerektiğini de düşündüm. Bir de Türkçe karakterleri girmekte hata yapmış olabilirim. Ya da beklediğinizden daha uzun bir sürede tamamlamış olablirim. Klavyem Türkçe değil ve harflerin yerini hatırlamakta zorluk çekiyorum. ,0.25 GBP,420296
52,overinformativeness,bag_big_red,bag,8410,\nKırmızı okul çantası,Chrome,Windows,864,1536,Türkçe,-1,Confused,29,Female,4,,Başlarda sadece nesneyi yazdım fakat daha sonra nesnelerı betımlemem gerektiğini de düşündüm. Bir de Türkçe karakterleri girmekte hata yapmış olabilirim. Ya da beklediğinizden daha uzun bir sürede tamamlamış olablirim. Klavyem Türkçe değil ve harflerin yerini hatırlamakta zorluk çekiyorum. ,0.25 GBP,420296
53,overinformativeness,shoe_big_pink,shoe,5019,\nPembe ayakkabı,Chrome,Windows,864,1536,Türkçe,-1,Confused,29,Female,4,,Başlarda sadece nesneyi yazdım fakat daha sonra nesnelerı betımlemem gerektiğini de düşündüm. Bir de Türkçe karakterleri girmekte hata yapmış olabilirim. Ya da beklediğinizden daha uzun bir sürede tamamlamış olablirim. Klavyem Türkçe değil ve harflerin yerini hatırlamakta zorluk çekiyorum. ,0.25 GBP,420296
54,overinformativeness,binoculars_big_blue,binoculars,6194,\nMavi dürbün,Chrome,Windows,864,1536,Türkçe,-1,Confused,29,Female,4,,Başlarda sadece nesneyi yazdım fakat daha sonra nesnelerı betımlemem gerektiğini de düşündüm. Bir de Türkçe karakterleri girmekte hata yapmış olabilirim. Ya da beklediğinizden daha uzun bir sürede tamamlamış olablirim. Klavyem Türkçe değil ve harflerin yerini hatırlamakta zorluk çekiyorum. ,0.25 GBP,420296
55,overinformativeness,glove_big_green,glove,5366,\nYeşil eldiven,Chrome,Windows,864,1536,Türkçe,-1,Confused,29,Female,4,,Başlarda sadece nesneyi yazdım fakat daha sonra nesnelerı betımlemem gerektiğini de düşündüm. Bir de Türkçe karakterleri girmekte hata yapmış olabilirim. Ya da beklediğinizden daha uzun bir sürede tamamlamış olablirim. Klavyem Türkçe değil ve harflerin yerini hatırlamakta zorluk çekiyorum. ,0.25 GBP,420296
56,overinformativeness,glasses_big_red,glasses,14516,\nKırmızı çerçeveli gözlük,Chrome,Windows,864,1536,Türkçe,-1,Confused,29,Female,4,,Başlarda sadece nesneyi yazdım fakat daha sonra nesnelerı betımlemem gerektiğini de düşündüm. Bir de Türkçe karakterleri girmekte hata yapmış olabilirim. Ya da beklediğinizden daha uzun bir sürede tamamlamış olablirim. Klavyem Türkçe değil ve harflerin yerini hatırlamakta zorluk çekiyorum. ,0.25 GBP,420296
57,overinformativeness,flower_big_yellow,flower,8513,\nSarı çiçek,Chrome,Windows,864,1536,Türkçe,-1,Confused,29,Female,4,,Başlarda sadece nesneyi yazdım fakat daha sonra nesnelerı betımlemem gerektiğini de düşündüm. Bir de Türkçe karakterleri girmekte hata yapmış olabilirim. Ya da beklediğinizden daha uzun bir sürede tamamlamış olablirim. Klavyem Türkçe değil ve harflerin yerini hatırlamakta zorluk çekiyorum. ,0.25 GBP,420296
58,overinformativeness,skirt_big_green,skirt,6080,\nYeşil etek,Chrome,Windows,864,1536,Türkçe,-1,Confused,29,Female,4,,Başlarda sadece nesneyi yazdım fakat daha sonra nesnelerı betımlemem gerektiğini de düşündüm. Bir de Türkçe karakterleri girmekte hata yapmış olabilirim. Ya da beklediğinizden daha uzun bir sürede tamamlamış olablirim. Klavyem Türkçe değil ve harflerin yerini hatırlamakta zorluk çekiyorum. ,0.25 GBP,420296
59,overinformativeness,socks_big_green,socks,6219,\nYeşil çorap,Chrome,Windows,864,1536,Türkçe,-1,Confused,29,Female,4,,Başlarda sadece nesneyi yazdım fakat daha sonra nesnelerı betımlemem gerektiğini de düşündüm. Bir de Türkçe karakterleri girmekte hata yapmış olabilirim. Ya da beklediğinizden daha uzun bir sürede tamamlamış olablirim. Klavyem Türkçe değil ve harflerin yerini hatırlamakta zorluk çekiyorum. ,0.25 GBP,420296
60,overinformativeness,mirror_big_white,mirror,8205,\nBeyaz saplı ayna,Chrome,Windows,864,1536,Türkçe,-1,Confused,29,Female,4,,Başlarda sadece nesneyi yazdım fakat daha sonra nesnelerı betımlemem gerektiğini de düşündüm. Bir de Türkçe karakterleri girmekte hata yapmış olabilirim. Ya da beklediğinizden daha uzun bir sürede tamamlamış olablirim. Klavyem Türkçe değil ve harflerin yerini hatırlamakta zorluk çekiyorum. ,0.25 GBP,420296
61,overinformativeness,lock_big_silver,lock,6562,\nAsma kilit,Chrome,Windows,864,1536,Türkçe,-1,Confused,29,Female,4,,Başlarda sadece nesneyi yazdım fakat daha sonra nesnelerı betımlemem gerektiğini de düşündüm. Bir de Türkçe karakterleri girmekte hata yapmış olabilirim. Ya da beklediğinizden daha uzun bir sürede tamamlamış olablirim. Klavyem Türkçe değil ve harflerin yerini hatırlamakta zorluk çekiyorum. ,0.25 GBP,420296
62,overinformativeness,ball_big_purple,ball,3017,\nMor top,Chrome,Windows,864,1536,Türkçe,-1,Confused,29,Female,4,,Başlarda sadece nesneyi yazdım fakat daha sonra nesnelerı betımlemem gerektiğini de düşündüm. Bir de Türkçe karakterleri girmekte hata yapmış olabilirim. Ya da beklediğinizden daha uzun bir sürede tamamlamış olablirim. Klavyem Türkçe değil ve harflerin yerini hatırlamakta zorluk çekiyorum. ,0.25 GBP,420296
63,overinformativeness,lock_big_gold,lock,10134,\nAsma kilit,Chrome,Windows,864,1536,Türkçe,-1,Confused,29,Female,4,,Başlarda sadece nesneyi yazdım fakat daha sonra nesnelerı betımlemem gerektiğini de düşündüm. Bir de Türkçe karakterleri girmekte hata yapmış olabilirim. Ya da beklediğinizden daha uzun bir sürede tamamlamış olablirim. Klavyem Türkçe değil ve harflerin yerini hatırlamakta zorluk çekiyorum. ,0.25 GBP,420296
64,overinformativeness,clock_big_purple,clock,6673,\nMor çalar saat,Chrome,Windows,864,1536,Türkçe,-1,Confused,29,Female,4,,Başlarda sadece nesneyi yazdım fakat daha sonra nesnelerı betımlemem gerektiğini de düşündüm. Bir de Türkçe karakterleri girmekte hata yapmış olabilirim. Ya da beklediğinizden daha uzun bir sürede tamamlamış olablirim. Klavyem Türkçe değil ve harflerin yerini hatırlamakta zorluk çekiyorum. ,0.25 GBP,420296
65,overinformativeness,hat_big_pink,hat,5024,\nPembe şapka,Chrome,Windows,864,1536,Türkçe,-1,Confused,29,Female,4,,Başlarda sadece nesneyi yazdım fakat daha sonra nesnelerı betımlemem gerektiğini de düşündüm. Bir de Türkçe karakterleri girmekte hata yapmış olabilirim. Ya da beklediğinizden daha uzun bir sürede tamamlamış olablirim. Klavyem Türkçe değil ve harflerin yerini hatırlamakta zorluk çekiyorum. ,0.25 GBP,420296
66,overinformativeness,pants_big_green,pants,5669,\nYeşil pantolon,Chrome,Windows,864,1536,Türkçe,-1,Confused,29,Female,4,,Başlarda sadece nesneyi yazdım fakat daha sonra nesnelerı betımlemem gerektiğini de düşündüm. Bir de Türkçe karakterleri girmekte hata yapmış olabilirim. Ya da beklediğinizden daha uzun bir sürede tamamlamış olablirim. Klavyem Türkçe değil ve harflerin yerini hatırlamakta zorluk çekiyorum. ,0.25 GBP,420296
67,overinformativeness,toothbrush_big_green,toothbrush,12880,\nYeşil saplı diş fırçası,Chrome,Windows,864,1536,Türkçe,-1,Confused,29,Female,4,,Başlarda sadece nesneyi yazdım fakat daha sonra nesnelerı betımlemem gerektiğini de düşündüm. Bir de Türkçe karakterleri girmekte hata yapmış olabilirim. Ya da beklediğinizden daha uzun bir sürede tamamlamış olablirim. Klavyem Türkçe değil ve harflerin yerini hatırlamakta zorluk çekiyorum. ,0.25 GBP,420296
68,adjective_ordering,frog_spotted_green,frog,16205,\nbeyaz benekli yeşil kurbağa,Chrome,Windows,864,1536,Türkçe,-1,Confused,29,Female,4,,Başlarda sadece nesneyi yazdım fakat daha sonra nesnelerı betımlemem gerektiğini de düşündüm. Bir de Türkçe karakterleri girmekte hata yapmış olabilirim. Ya da beklediğinizden daha uzun bir sürede tamamlamış olablirim. Klavyem Türkçe değil ve harflerin yerini hatırlamakta zorluk çekiyorum. ,0.25 GBP,420296
69,adjective_ordering,table_metal_low,table,8335,\nGri masa,Chrome,Windows,864,1536,Türkçe,-1,Confused,29,Female,4,,Başlarda sadece nesneyi yazdım fakat daha sonra nesnelerı betımlemem gerektiğini de düşündüm. Bir de Türkçe karakterleri girmekte hata yapmış olabilirim. Ya da beklediğinizden daha uzun bir sürede tamamlamış olablirim. Klavyem Türkçe değil ve harflerin yerini hatırlamakta zorluk çekiyorum. ,0.25 GBP,420296
70,overinformativeness,pants_big_pink,pants,8271,\nPembe pantolon,Chrome,Windows,864,1536,Türkçe,-1,Confused,29,Female,4,,Başlarda sadece nesneyi yazdım fakat daha sonra nesnelerı betımlemem gerektiğini de düşündüm. Bir de Türkçe karakterleri girmekte hata yapmış olabilirim. Ya da beklediğinizden daha uzun bir sürede tamamlamış olablirim. Klavyem Türkçe değil ve harflerin yerini hatırlamakta zorluk çekiyorum. ,0.25 GBP,420296
71,overinformativeness,car_big_green,car,6822,\nYeşil oyuncak araba,Chrome,Windows,864,1536,Türkçe,-1,Confused,29,Female,4,,Başlarda sadece nesneyi yazdım fakat daha sonra nesnelerı betımlemem gerektiğini de düşündüm. Bir de Türkçe karakterleri girmekte hata yapmış olabilirim. Ya da beklediğinizden daha uzun bir sürede tamamlamış olablirim. Klavyem Türkçe değil ve harflerin yerini hatırlamakta zorluk çekiyorum. ,0.25 GBP,420296
72,overinformativeness,skirt_big_blue,skirt,18321,açık mavi etek,Chrome,Windows,864,1536,Türkçe,-1,Confused,29,Female,4,,Başlarda sadece nesneyi yazdım fakat daha sonra nesnelerı betımlemem gerektiğini de düşündüm. Bir de Türkçe karakterleri girmekte hata yapmış olabilirim. Ya da beklediğinizden daha uzun bir sürede tamamlamış olablirim. Klavyem Türkçe değil ve harflerin yerini hatırlamakta zorluk çekiyorum. ,0.25 GBP,420296
73,overinformativeness,button_big_blue,button,5967,\nMavi düğme,Chrome,Windows,864,1536,Türkçe,-1,Confused,29,Female,4,,Başlarda sadece nesneyi yazdım fakat daha sonra nesnelerı betımlemem gerektiğini de düşündüm. Bir de Türkçe karakterleri girmekte hata yapmış olabilirim. Ya da beklediğinizden daha uzun bir sürede tamamlamış olablirim. Klavyem Türkçe değil ve harflerin yerini hatırlamakta zorluk çekiyorum. ,0.25 GBP,420296
74,overinformativeness,tie_big_red,tie,12772,\nKırmızı kıravat,Chrome,Windows,864,1536,Türkçe,-1,Confused,29,Female,4,,Başlarda sadece nesneyi yazdım fakat daha sonra nesnelerı betımlemem gerektiğini de düşündüm. Bir de Türkçe karakterleri girmekte hata yapmış olabilirim. Ya da beklediğinizden daha uzun bir sürede tamamlamış olablirim. Klavyem Türkçe değil ve harflerin yerini hatırlamakta zorluk çekiyorum. ,0.25 GBP,420296
75,overinformativeness,lipstick_big_pink,lipstick,5653,\nPembe ruj,Chrome,Windows,864,1536,Türkçe,-1,Confused,29,Female,4,,Başlarda sadece nesneyi yazdım fakat daha sonra nesnelerı betımlemem gerektiğini de düşündüm. Bir de Türkçe karakterleri girmekte hata yapmış olabilirim. Ya da beklediğinizden daha uzun bir sürede tamamlamış olablirim. Klavyem Türkçe değil ve harflerin yerini hatırlamakta zorluk çekiyorum. ,0.25 GBP,420296
76,adjective_ordering,spoon_metal_dirty,spoon,6670,\nTatlı kaşığı,Chrome,Windows,864,1536,Türkçe,-1,Confused,29,Female,4,,Başlarda sadece nesneyi yazdım fakat daha sonra nesnelerı betımlemem gerektiğini de düşündüm. Bir de Türkçe karakterleri girmekte hata yapmış olabilirim. Ya da beklediğinizden daha uzun bir sürede tamamlamış olablirim. Klavyem Türkçe değil ve harflerin yerini hatırlamakta zorluk çekiyorum. ,0.25 GBP,420296
77,overinformativeness,pot_big_green,pot,6280,\nyeşil tencere,Chrome,Windows,864,1536,Türkçe,-1,Confused,29,Female,4,,Başlarda sadece nesneyi yazdım fakat daha sonra nesnelerı betımlemem gerektiğini de düşündüm. Bir de Türkçe karakterleri girmekte hata yapmış olabilirim. Ya da beklediğinizden daha uzun bir sürede tamamlamış olablirim. Klavyem Türkçe değil ve harflerin yerini hatırlamakta zorluk çekiyorum. ,0.25 GBP,420296
78,adjective_ordering,nails_black_matte,nail_polish,11920,\nmat siyah oje,Chrome,Windows,864,1536,Türkçe,-1,Confused,29,Female,4,,Başlarda sadece nesneyi yazdım fakat daha sonra nesnelerı betımlemem gerektiğini de düşündüm. Bir de Türkçe karakterleri girmekte hata yapmış olabilirim. Ya da beklediğinizden daha uzun bir sürede tamamlamış olablirim. Klavyem Türkçe değil ve harflerin yerini hatırlamakta zorluk çekiyorum. ,0.25 GBP,420296
79,overinformativeness,tshirt_big_orange,tshirt,17980,Tarçın renkli t-shirt,Chrome,Windows,864,1536,Türkçe,-1,Confused,29,Female,4,,Başlarda sadece nesneyi yazdım fakat daha sonra nesnelerı betımlemem gerektiğini de düşündüm. Bir de Türkçe karakterleri girmekte hata yapmış olabilirim. Ya da beklediğinizden daha uzun bir sürede tamamlamış olablirim. Klavyem Türkçe değil ve harflerin yerini hatırlamakta zorluk çekiyorum. ,0.25 GBP,420296
80,overinformativeness,bag_big_blue,bag,13572,\nKoyu mavi sırt çantası,Chrome,Windows,864,1536,Türkçe,-1,Confused,29,Female,4,,Başlarda sadece nesneyi yazdım fakat daha sonra nesnelerı betımlemem gerektiğini de düşündüm. Bir de Türkçe karakterleri girmekte hata yapmış olabilirim. Ya da beklediğinizden daha uzun bir sürede tamamlamış olablirim. Klavyem Türkçe değil ve harflerin yerini hatırlamakta zorluk çekiyorum. ,0.25 GBP,420296
81,overinformativeness,clock_big_yellow,clock,6976,\nSarı çalar saat,Chrome,Windows,864,1536,Türkçe,-1,Confused,29,Female,4,,Başlarda sadece nesneyi yazdım fakat daha sonra nesnelerı betımlemem gerektiğini de düşündüm. Bir de Türkçe karakterleri girmekte hata yapmış olabilirim. Ya da beklediğinizden daha uzun bir sürede tamamlamış olablirim. Klavyem Türkçe değil ve harflerin yerini hatırlamakta zorluk çekiyorum. ,0.25 GBP,420296
82,overinformativeness,socks_big_blue,socks,3922,\nMavi çorap,Chrome,Windows,864,1536,Türkçe,-1,Confused,29,Female,4,,Başlarda sadece nesneyi yazdım fakat daha sonra nesnelerı betımlemem gerektiğini de düşündüm. Bir de Türkçe karakterleri girmekte hata yapmış olabilirim. Ya da beklediğinizden daha uzun bir sürede tamamlamış olablirim. Klavyem Türkçe değil ve harflerin yerini hatırlamakta zorluk çekiyorum. ,0.25 GBP,420296
83,overinformativeness,scissors_big_blue,scissors,7310,\nLacivert saplı makas,Chrome,Windows,864,1536,Türkçe,-1,Confused,29,Female,4,,Başlarda sadece nesneyi yazdım fakat daha sonra nesnelerı betımlemem gerektiğini de düşündüm. Bir de Türkçe karakterleri girmekte hata yapmış olabilirim. Ya da beklediğinizden daha uzun bir sürede tamamlamış olablirim. Klavyem Türkçe değil ve harflerin yerini hatırlamakta zorluk çekiyorum. ,0.25 GBP,420296
84,overinformativeness,flower_big_pink,flower,9623,\npembe çiçek,Chrome,Windows,864,1536,Türkçe,-1,Confused,29,Female,4,,Başlarda sadece nesneyi yazdım fakat daha sonra nesnelerı betımlemem gerektiğini de düşündüm. Bir de Türkçe karakterleri girmekte hata yapmış olabilirim. Ya da beklediğinizden daha uzun bir sürede tamamlamış olablirim. Klavyem Türkçe değil ve harflerin yerini hatırlamakta zorluk çekiyorum. ,0.25 GBP,420296
85,overinformativeness,lighter_big_black,lighter,5770,\nsiyah çakmak,Chrome,Windows,864,1536,Türkçe,-1,Confused,29,Female,4,,Başlarda sadece nesneyi yazdım fakat daha sonra nesnelerı betımlemem gerektiğini de düşündüm. Bir de Türkçe karakterleri girmekte hata yapmış olabilirim. Ya da beklediğinizden daha uzun bir sürede tamamlamış olablirim. Klavyem Türkçe değil ve harflerin yerini hatırlamakta zorluk çekiyorum. ,0.25 GBP,420296
86,overinformativeness,balloon_big_pink,balloon,6266,\npembe balon,Chrome,Windows,864,1536,Türkçe,-1,Confused,29,Female,4,,Başlarda sadece nesneyi yazdım fakat daha sonra nesnelerı betımlemem gerektiğini de düşündüm. Bir de Türkçe karakterleri girmekte hata yapmış olabilirim. Ya da beklediğinizden daha uzun bir sürede tamamlamış olablirim. Klavyem Türkçe değil ve harflerin yerini hatırlamakta zorluk çekiyorum. ,0.25 GBP,420296
87,overinformativeness,brush_big_blue,brush,9696,\nMor saplı boya fırçası,Chrome,Windows,864,1536,Türkçe,-1,Confused,29,Female,4,,Başlarda sadece nesneyi yazdım fakat daha sonra nesnelerı betımlemem gerektiğini de düşündüm. Bir de Türkçe karakterleri girmekte hata yapmış olabilirim. Ya da beklediğinizden daha uzun bir sürede tamamlamış olablirim. Klavyem Türkçe değil ve harflerin yerini hatırlamakta zorluk çekiyorum. ,0.25 GBP,420296
88,overinformativeness,toothbrush_big_purple,toothbrush,11099,\nmor saplı diş fırçası,Chrome,Windows,864,1536,Türkçe,-1,Confused,29,Female,4,,Başlarda sadece nesneyi yazdım fakat daha sonra nesnelerı betımlemem gerektiğini de düşündüm. Bir de Türkçe karakterleri girmekte hata yapmış olabilirim. Ya da beklediğinizden daha uzun bir sürede tamamlamış olablirim. Klavyem Türkçe değil ve harflerin yerini hatırlamakta zorluk çekiyorum. ,0.25 GBP,420296
