slide_number_in_experiment,trial_type,label,object,rt,response,Browser,OS,screenH,screenW,language,enjoyment,asses,age,gender,education,comments,problems,fairprice,participant_id
1,bot_check,,beyaz,0,beyaz,Firefox,Windows,768,1366,Türkçe,1,Yes,23,Male,3,,hayır,,685562
3,overinformativeness,rosary_big_yellow,rosary,27091,tesbih,Firefox,Windows,768,1366,Türkçe,1,Yes,23,Male,3,,hayır,,685562
4,adjective_ordering,woman2_sad_fat,woman2,13854,kadin,Firefox,Windows,768,1366,Türkçe,1,Yes,23,Male,3,,hayır,,685562
5,overinformativeness,scissors_big_blue,scissors,5360,makas,Firefox,Windows,768,1366,Türkçe,1,Yes,23,Male,3,,hayır,,685562
6,overinformativeness,cat_big_white,cat,5427,kedi,Firefox,Windows,768,1366,Türkçe,1,Yes,23,Male,3,,hayır,,685562
7,overinformativeness,tshirt_big_yellow,tshirt,66978,tişört,Firefox,Windows,768,1366,Türkçe,1,Yes,23,Male,3,,hayır,,685562
8,overinformativeness,button_big_blue,button,6999,düğme,Firefox,Windows,768,1366,Türkçe,1,Yes,23,Male,3,,hayır,,685562
9,overinformativeness,brush_big_blue,brush,103837,boyama aleti,Firefox,Windows,768,1366,Türkçe,1,Yes,23,Male,3,,hayır,,685562
10,adjective_ordering,table_wood_low,table,4967,masa,Firefox,Windows,768,1366,Türkçe,1,Yes,23,Male,3,,hayır,,685562
11,overinformativeness,brush_big_red,brush,7736,boyama aleti,Firefox,Windows,768,1366,Türkçe,1,Yes,23,Male,3,,hayır,,685562
12,overinformativeness,dress_big_green,dress,12727,elbise,Firefox,Windows,768,1366,Türkçe,1,Yes,23,Male,3,,hayır,,685562
13,overinformativeness,pepper_big_green,pepper,28239,biber,Firefox,Windows,768,1366,Türkçe,1,Yes,23,Male,3,,hayır,,685562
14,overinformativeness,tie_big_blue,tie,6318,kravat,Firefox,Windows,768,1366,Türkçe,1,Yes,23,Male,3,,hayır,,685562
15,adjective_ordering,hair_curly_blonde,hair,4720,saç,Firefox,Windows,768,1366,Türkçe,1,Yes,23,Male,3,,hayır,,685562
16,adjective_ordering,box_closed_wood,box,3983,kutu,Firefox,Windows,768,1366,Türkçe,1,Yes,23,Male,3,,hayır,,685562
17,overinformativeness,book_big_blue,book,6752,kitap,Firefox,Windows,768,1366,Türkçe,1,Yes,23,Male,3,,hayır,,685562
18,overinformativeness,lipstick_big_pink,lipstick,3694,ruj,Firefox,Windows,768,1366,Türkçe,1,Yes,23,Male,3,,hayır,,685562
19,overinformativeness,chair_big_blue,chair,5018,sandalye,Firefox,Windows,768,1366,Türkçe,1,Yes,23,Male,3,,hayır,,685562
20,overinformativeness,socks_big_blue,socks,6903,çorap,Firefox,Windows,768,1366,Türkçe,1,Yes,23,Male,3,,hayır,,685562
21,adjective_ordering,spoon_metal_clean,spoon,4992,kaşık,Firefox,Windows,768,1366,Türkçe,1,Yes,23,Male,3,,hayır,,685562
22,overinformativeness,lighter_big_white,lighter,4367,çakmak,Firefox,Windows,768,1366,Türkçe,1,Yes,23,Male,3,,hayır,,685562
23,overinformativeness,knife_big_blue,knife,5681,bıçak,Firefox,Windows,768,1366,Türkçe,1,Yes,23,Male,3,,hayır,,685562
24,overinformativeness,glove_big_orange,glove,7888,eldiven,Firefox,Windows,768,1366,Türkçe,1,Yes,23,Male,3,,hayır,,685562
25,overinformativeness,binoculars_big_red,binoculars,154164,dürbün,Firefox,Windows,768,1366,Türkçe,1,Yes,23,Male,3,,hayır,,685562
26,overinformativeness,pepper_big_red,pepper,7128,kırmızı biber,Firefox,Windows,768,1366,Türkçe,1,Yes,23,Male,3,,hayır,,685562
27,overinformativeness,mirror_big_black,mirror,7152,ayna,Firefox,Windows,768,1366,Türkçe,1,Yes,23,Male,3,,hayır,,685562
28,overinformativeness,ball_big_yellow,ball,4358,top,Firefox,Windows,768,1366,Türkçe,1,Yes,23,Male,3,,hayır,,685562
29,overinformativeness,hat_big_pink,hat,4993,şapka,Firefox,Windows,768,1366,Türkçe,1,Yes,23,Male,3,,hayır,,685562
30,overinformativeness,chair_big_yellow,chair,5655,sandalye,Firefox,Windows,768,1366,Türkçe,1,Yes,23,Male,3,,hayır,,685562
31,overinformativeness,pot_big_blue,pot,5424,tencere,Firefox,Windows,768,1366,Türkçe,1,Yes,23,Male,3,,hayır,,685562
32,overinformativeness,ball_big_purple,ball,4801,top,Firefox,Windows,768,1366,Türkçe,1,Yes,23,Male,3,,hayır,,685562
33,overinformativeness,pot_big_green,pot,9543,yeşil tencere,Firefox,Windows,768,1366,Türkçe,1,Yes,23,Male,3,,hayır,,685562
34,overinformativeness,key_big_silver,key,5119,anahtar,Firefox,Windows,768,1366,Türkçe,1,Yes,23,Male,3,,hayır,,685562
35,overinformativeness,apple_big_green,apple,3441,elma,Firefox,Windows,768,1366,Türkçe,1,Yes,23,Male,3,,hayır,,685562
36,overinformativeness,car_big_green,car,6927,oyuncak araba,Firefox,Windows,768,1366,Türkçe,1,Yes,23,Male,3,,hayır,,685562
37,overinformativeness,skirt_big_blue,skirt,8192,elbise,Firefox,Windows,768,1366,Türkçe,1,Yes,23,Male,3,,hayır,,685562
38,overinformativeness,knife_big_red,knife,5656,bıçak,Firefox,Windows,768,1366,Türkçe,1,Yes,23,Male,3,,hayır,,685562
39,overinformativeness,toothbrush_big_purple,toothbrush,10824,dış fırçası,Firefox,Windows,768,1366,Türkçe,1,Yes,23,Male,3,,hayır,,685562
40,overinformativeness,umbrella_big_blue,umbrella,7479,şemsiye,Firefox,Windows,768,1366,Türkçe,1,Yes,23,Male,3,,hayır,,685562
41,overinformativeness,socks_big_green,socks,6592,çorap,Firefox,Windows,768,1366,Türkçe,1,Yes,23,Male,3,,hayır,,685562
42,overinformativeness,lock_big_silver,lock,40935,kilit,Firefox,Windows,768,1366,Türkçe,1,Yes,23,Male,3,,hayır,,685562
43,overinformativeness,clock_big_purple,clock,6352,çalar saat,Firefox,Windows,768,1366,Türkçe,1,Yes,23,Male,3,,hayır,,685562
44,overinformativeness,key_big_gold,key,5689,anahtar,Firefox,Windows,768,1366,Türkçe,1,Yes,23,Male,3,,hayır,,685562
45,overinformativeness,shoe_big_yellow,shoe,7438,ayakkabı,Firefox,Windows,768,1366,Türkçe,1,Yes,23,Male,3,,hayır,,685562
46,overinformativeness,tshirt_big_orange,tshirt,8408,tişört,Firefox,Windows,768,1366,Türkçe,1,Yes,23,Male,3,,hayır,,685562
47,overinformativeness,lock_big_gold,lock,6392,kilit,Firefox,Windows,768,1366,Türkçe,1,Yes,23,Male,3,,hayır,,685562
48,overinformativeness,flower_big_pink,flower,8855,gül,Firefox,Windows,768,1366,Türkçe,1,Yes,23,Male,3,,hayır,,685562
49,overinformativeness,scissors_big_green,scissors,3568,makas,Firefox,Windows,768,1366,Türkçe,1,Yes,23,Male,3,,hayır,,685562
50,adjective_ordering,shorts_dry_red,shorts,6247,şört,Firefox,Windows,768,1366,Türkçe,1,Yes,23,Male,3,,hayır,,685562
51,adjective_ordering,picture_bw_square,picture,21192,resim tablosu,Firefox,Windows,768,1366,Türkçe,1,Yes,23,Male,3,,hayır,,685562
52,overinformativeness,skirt_big_green,skirt,4856,elbise,Firefox,Windows,768,1366,Türkçe,1,Yes,23,Male,3,,hayır,,685562
53,overinformativeness,dress_big_blue,dress,4607,elbise,Firefox,Windows,768,1366,Türkçe,1,Yes,23,Male,3,,hayır,,685562
54,overinformativeness,bag_big_blue,bag,5040,çanta,Firefox,Windows,768,1366,Türkçe,1,Yes,23,Male,3,,hayır,,685562
55,adjective_ordering,pencil_short_black,pencil,9712,kurşun kalem,Firefox,Windows,768,1366,Türkçe,1,Yes,23,Male,3,,hayır,,685562
56,overinformativeness,glasses_big_blue,glasses,6616,gözlük,Firefox,Windows,768,1366,Türkçe,1,Yes,23,Male,3,,hayır,,685562
57,overinformativeness,lighter_big_black,lighter,4863,çakmak,Firefox,Windows,768,1366,Türkçe,1,Yes,23,Male,3,,hayır,,685562
58,adjective_ordering,man_young_bearded,man,10031,sakal,Firefox,Windows,768,1366,Türkçe,1,Yes,23,Male,3,,hayır,,685562
59,overinformativeness,pants_big_green,pants,30175,pantalon,Firefox,Windows,768,1366,Türkçe,1,Yes,23,Male,3,,hayır,,685562
60,overinformativeness,tie_big_red,tie,10048,kravat,Firefox,Windows,768,1366,Türkçe,1,Yes,23,Male,3,,hayır,,685562
61,adjective_ordering,nails_red_glossy,nail_polish,5847,tırnak,Firefox,Windows,768,1366,Türkçe,1,Yes,23,Male,3,,hayır,,685562
62,overinformativeness,umbrella_big_green,umbrella,7880,şemsiye,Firefox,Windows,768,1366,Türkçe,1,Yes,23,Male,3,,hayır,,685562
63,overinformativeness,car_big_blue,car,6584,oyuncak araba,Firefox,Windows,768,1366,Türkçe,1,Yes,23,Male,3,,hayır,,685562
64,overinformativeness,clock_big_yellow,clock,6128,çalar saat,Firefox,Windows,768,1366,Türkçe,1,Yes,23,Male,3,,hayır,,685562
65,overinformativeness,flower_big_yellow,flower,5023,gül,Firefox,Windows,768,1366,Türkçe,1,Yes,23,Male,3,,hayır,,685562
66,overinformativeness,bag_big_red,bag,4368,çanta,Firefox,Windows,768,1366,Türkçe,1,Yes,23,Male,3,,hayır,,685562
67,overinformativeness,book_big_red,book,4320,kitap,Firefox,Windows,768,1366,Türkçe,1,Yes,23,Male,3,,hayır,,685562
68,adjective_ordering,woman_young_happy,woman,4759,kadın,Firefox,Windows,768,1366,Türkçe,1,Yes,23,Male,3,,hayır,,685562
69,overinformativeness,shoe_big_pink,shoe,6887,ayakkabı,Firefox,Windows,768,1366,Türkçe,1,Yes,23,Male,3,,hayır,,685562
70,overinformativeness,balloon_big_yellow,balloon,6553,baloncuk,Firefox,Windows,768,1366,Türkçe,1,Yes,23,Male,3,,hayır,,685562
71,adjective_ordering,frog_striped_red,frog,7352,kurubağ,Firefox,Windows,768,1366,Türkçe,1,Yes,23,Male,3,,hayır,,685562
72,overinformativeness,glove_big_green,glove,5959,eldiven,Firefox,Windows,768,1366,Türkçe,1,Yes,23,Male,3,,hayır,,685562
73,overinformativeness,button_big_green,button,5352,düğme,Firefox,Windows,768,1366,Türkçe,1,Yes,23,Male,3,,hayır,,685562
74,adjective_ordering,bottle_plastic_big,bottle,6192,su şişesi,Firefox,Windows,768,1366,Türkçe,1,Yes,23,Male,3,,hayır,,685562
75,overinformativeness,apple_big_red,apple,3320,elma,Firefox,Windows,768,1366,Türkçe,1,Yes,23,Male,3,,hayır,,685562
76,adjective_ordering,cup_full_plastic,cup,4672,bardak,Firefox,Windows,768,1366,Türkçe,1,Yes,23,Male,3,,hayır,,685562
77,overinformativeness,rosary_big_blue,rosary,4759,tesbih,Firefox,Windows,768,1366,Türkçe,1,Yes,23,Male,3,,hayır,,685562
78,adjective_ordering,man2_bearded_glassed,man2,8665,adam,Firefox,Windows,768,1366,Türkçe,1,Yes,23,Male,3,,hayır,,685562
79,overinformativeness,binoculars_big_blue,binoculars,5808,dürbün,Firefox,Windows,768,1366,Türkçe,1,Yes,23,Male,3,,hayır,,685562
80,overinformativeness,glasses_big_red,glasses,6135,gözlük,Firefox,Windows,768,1366,Türkçe,1,Yes,23,Male,3,,hayır,,685562
81,overinformativeness,hat_big_orange,hat,5024,şapka,Firefox,Windows,768,1366,Türkçe,1,Yes,23,Male,3,,hayır,,685562
82,overinformativeness,balloon_big_pink,balloon,6024,baloncuk,Firefox,Windows,768,1366,Türkçe,1,Yes,23,Male,3,,hayır,,685562
83,overinformativeness,pants_big_pink,pants,5608,pantalon,Firefox,Windows,768,1366,Türkçe,1,Yes,23,Male,3,,hayır,,685562
84,overinformativeness,mirror_big_white,mirror,14664,ayna,Firefox,Windows,768,1366,Türkçe,1,Yes,23,Male,3,,hayır,,685562
85,overinformativeness,toothbrush_big_green,toothbrush,8167,dış fırçası,Firefox,Windows,768,1366,Türkçe,1,Yes,23,Male,3,,hayır,,685562
86,adjective_ordering,earring_big_round,earring,5032,küpe,Firefox,Windows,768,1366,Türkçe,1,Yes,23,Male,3,,hayır,,685562
87,overinformativeness,lipstick_big_red,lipstick,3735,ruj,Firefox,Windows,768,1366,Türkçe,1,Yes,23,Male,3,,hayır,,685562
88,overinformativeness,cat_big_black,cat,3585,kedi,Firefox,Windows,768,1366,Türkçe,1,Yes,23,Male,3,,hayır,,685562
