slide_number_in_experiment,trial_type,label,object,rt,response,Browser,OS,screenH,screenW,language,enjoyment,asses,age,gender,education,comments,problems,fairprice,participant_id
1,bot_check,,beyaz,0,beyaz,Chrome,Mac,800,1280,Türkçe,1,Yes,29,Male,4,,,,786698
3,overinformativeness,tshirt_big_orange,tshirt,28531,tisört,Chrome,Mac,800,1280,Türkçe,1,Yes,29,Male,4,,,,786698
4,overinformativeness,mirror_big_black,mirror,5680,ayna,Chrome,Mac,800,1280,Türkçe,1,Yes,29,Male,4,,,,786698
5,overinformativeness,lipstick_big_red,lipstick,3631,ruj,Chrome,Mac,800,1280,Türkçe,1,Yes,29,Male,4,,,,786698
6,overinformativeness,chair_big_blue,chair,4524,sandalye,Chrome,Mac,800,1280,Türkçe,1,Yes,29,Male,4,,,,786698
7,overinformativeness,cat_big_black,cat,4932,kedi,Chrome,Mac,800,1280,Türkçe,1,Yes,29,Male,4,,,,786698
8,overinformativeness,scissors_big_green,scissors,3323,makas,Chrome,Mac,800,1280,Türkçe,1,Yes,29,Male,4,,,,786698
9,overinformativeness,key_big_silver,key,3513,anahtar,Chrome,Mac,800,1280,Türkçe,1,Yes,29,Male,4,,,,786698
10,overinformativeness,button_big_green,button,9882,düğme,Chrome,Mac,800,1280,Türkçe,1,Yes,29,Male,4,,,,786698
11,adjective_ordering,bottle_glass_big,bottle,8100,şişe,Chrome,Mac,800,1280,Türkçe,1,Yes,29,Male,4,,,,786698
12,overinformativeness,ball_big_purple,ball,5866,top,Chrome,Mac,800,1280,Türkçe,1,Yes,29,Male,4,,,,786698
13,overinformativeness,dress_big_blue,dress,7030,elbise,Chrome,Mac,800,1280,Türkçe,1,Yes,29,Male,4,,,,786698
14,overinformativeness,cat_big_white,cat,9243,kedi,Chrome,Mac,800,1280,Türkçe,1,Yes,29,Male,4,,,,786698
15,adjective_ordering,table_wood_high,table,3240,masa,Chrome,Mac,800,1280,Türkçe,1,Yes,29,Male,4,,,,786698
16,adjective_ordering,spoon_metal_dirty,spoon,6676,kaşık,Chrome,Mac,800,1280,Türkçe,1,Yes,29,Male,4,,,,786698
17,overinformativeness,rosary_big_blue,rosary,4653,tesbih,Chrome,Mac,800,1280,Türkçe,1,Yes,29,Male,4,,,,786698
18,overinformativeness,knife_big_blue,knife,5530,bıçak,Chrome,Mac,800,1280,Türkçe,1,Yes,29,Male,4,,,,786698
19,overinformativeness,pot_big_blue,pot,4830,tencere,Chrome,Mac,800,1280,Türkçe,1,Yes,29,Male,4,,,,786698
20,overinformativeness,tie_big_blue,tie,6541,kıravat,Chrome,Mac,800,1280,Türkçe,1,Yes,29,Male,4,,,,786698
21,overinformativeness,button_big_blue,button,7620,düğme,Chrome,Mac,800,1280,Türkçe,1,Yes,29,Male,4,,,,786698
22,overinformativeness,toothbrush_big_purple,toothbrush,10911,diş fırçası,Chrome,Mac,800,1280,Türkçe,1,Yes,29,Male,4,,,,786698
23,overinformativeness,skirt_big_green,skirt,3986,etek,Chrome,Mac,800,1280,Türkçe,1,Yes,29,Male,4,,,,786698
24,overinformativeness,balloon_big_pink,balloon,3624,balon,Chrome,Mac,800,1280,Türkçe,1,Yes,29,Male,4,,,,786698
25,overinformativeness,pot_big_green,pot,6490,tencere,Chrome,Mac,800,1280,Türkçe,1,Yes,29,Male,4,,,,786698
26,overinformativeness,rosary_big_yellow,rosary,4951,tesbih,Chrome,Mac,800,1280,Türkçe,1,Yes,29,Male,4,,,,786698
27,overinformativeness,pepper_big_red,pepper,7751,biber,Chrome,Mac,800,1280,Türkçe,1,Yes,29,Male,4,,,,786698
28,overinformativeness,knife_big_red,knife,5244,bıçak,Chrome,Mac,800,1280,Türkçe,1,Yes,29,Male,4,,,,786698
29,overinformativeness,bag_big_blue,bag,5462,çanta,Chrome,Mac,800,1280,Türkçe,1,Yes,29,Male,4,,,,786698
30,overinformativeness,binoculars_big_red,binoculars,8354,dürbün,Chrome,Mac,800,1280,Türkçe,1,Yes,29,Male,4,,,,786698
31,overinformativeness,clock_big_yellow,clock,3657,\nsaat,Chrome,Mac,800,1280,Türkçe,1,Yes,29,Male,4,,,,786698
32,overinformativeness,apple_big_red,apple,2288,\nelma,Chrome,Mac,800,1280,Türkçe,1,Yes,29,Male,4,,,,786698
33,overinformativeness,book_big_blue,book,4423,\nkitap,Chrome,Mac,800,1280,Türkçe,1,Yes,29,Male,4,,,,786698
34,overinformativeness,balloon_big_yellow,balloon,2760,\nbalon,Chrome,Mac,800,1280,Türkçe,1,Yes,29,Male,4,,,,786698
35,adjective_ordering,man2_bearded_glassed,man2,11303,\nkafa,Chrome,Mac,800,1280,Türkçe,1,Yes,29,Male,4,,,,786698
36,overinformativeness,pepper_big_green,pepper,5248,\nbiber,Chrome,Mac,800,1280,Türkçe,1,Yes,29,Male,4,,,,786698
37,overinformativeness,skirt_big_blue,skirt,2152,\netek,Chrome,Mac,800,1280,Türkçe,1,Yes,29,Male,4,,,,786698
38,overinformativeness,lighter_big_black,lighter,4544,\nçakmak,Chrome,Mac,800,1280,Türkçe,1,Yes,29,Male,4,,,,786698
39,adjective_ordering,woman2_happy_fat,woman2,12052,\ninsan,Chrome,Mac,800,1280,Türkçe,1,Yes,29,Male,4,,,,786698
40,overinformativeness,brush_big_blue,brush,4896,\nfırça,Chrome,Mac,800,1280,Türkçe,1,Yes,29,Male,4,,,,786698
41,overinformativeness,lock_big_silver,lock,4024,\nkilit,Chrome,Mac,800,1280,Türkçe,1,Yes,29,Male,4,,,,786698
42,adjective_ordering,frog_striped_green,frog,5944,\nkurbağa,Chrome,Mac,800,1280,Türkçe,1,Yes,29,Male,4,,,,786698
43,overinformativeness,bag_big_red,bag,4504,\nçanta,Chrome,Mac,800,1280,Türkçe,1,Yes,29,Male,4,,,,786698
44,overinformativeness,chair_big_yellow,chair,3344,\nsandalye,Chrome,Mac,800,1280,Türkçe,1,Yes,29,Male,4,,,,786698
45,overinformativeness,flower_big_pink,flower,6688,\nçiçek,Chrome,Mac,800,1280,Türkçe,1,Yes,29,Male,4,,,,786698
46,overinformativeness,clock_big_purple,clock,3640,\nsaat,Chrome,Mac,800,1280,Türkçe,1,Yes,29,Male,4,,,,786698
47,overinformativeness,binoculars_big_blue,binoculars,19163,\ndürbün,Chrome,Mac,800,1280,Türkçe,1,Yes,29,Male,4,,,,786698
48,overinformativeness,tshirt_big_yellow,tshirt,9378,\ntişört,Chrome,Mac,800,1280,Türkçe,1,Yes,29,Male,4,,,,786698
49,overinformativeness,lock_big_gold,lock,8960,kilit,Chrome,Mac,800,1280,Türkçe,1,Yes,29,Male,4,,,,786698
50,adjective_ordering,nails_red_matte,nail_polish,10943,parmaklar,Chrome,Mac,800,1280,Türkçe,1,Yes,29,Male,4,,,,786698
51,overinformativeness,flower_big_yellow,flower,10008,\nçiçek,Chrome,Mac,800,1280,Türkçe,1,Yes,29,Male,4,,,,786698
52,overinformativeness,shoe_big_pink,shoe,3744,\nayakkabı,Chrome,Mac,800,1280,Türkçe,1,Yes,29,Male,4,,,,786698
53,overinformativeness,car_big_blue,car,13542,\naraba,Chrome,Mac,800,1280,Türkçe,1,Yes,29,Male,4,,,,786698
54,adjective_ordering,cup_full_metal,cup,9255,\nkupa,Chrome,Mac,800,1280,Türkçe,1,Yes,29,Male,4,,,,786698
55,overinformativeness,pants_big_pink,pants,21400,\npantolon,Chrome,Mac,800,1280,Türkçe,1,Yes,29,Male,4,,,,786698
56,adjective_ordering,box_open_cardboard,box,2392,\nkutu,Chrome,Mac,800,1280,Türkçe,1,Yes,29,Male,4,,,,786698
57,adjective_ordering,woman_young_happy,woman,6744,insan,Chrome,Mac,800,1280,Türkçe,1,Yes,29,Male,4,,,,786698
58,adjective_ordering,earring_small_triangular,earring,16008,\nkulak,Chrome,Mac,800,1280,Türkçe,1,Yes,29,Male,4,,,,786698
59,overinformativeness,umbrella_big_green,umbrella,7735,\nşemsiye,Chrome,Mac,800,1280,Türkçe,1,Yes,29,Male,4,,,,786698
60,overinformativeness,glove_big_orange,glove,3208,\neldiven,Chrome,Mac,800,1280,Türkçe,1,Yes,29,Male,4,,,,786698
61,overinformativeness,car_big_green,car,2384,\naraba,Chrome,Mac,800,1280,Türkçe,1,Yes,29,Male,4,,,,786698
62,overinformativeness,ball_big_yellow,ball,1968,\ntop,Chrome,Mac,800,1280,Türkçe,1,Yes,29,Male,4,,,,786698
63,overinformativeness,glove_big_green,glove,2840,\neldiven,Chrome,Mac,800,1280,Türkçe,1,Yes,29,Male,4,,,,786698
64,overinformativeness,toothbrush_big_green,toothbrush,7375,\ndiş fırçası,Chrome,Mac,800,1280,Türkçe,1,Yes,29,Male,4,,,,786698
65,adjective_ordering,man_young_bearded,man,6760,\nkafa,Chrome,Mac,800,1280,Türkçe,1,Yes,29,Male,4,,,,786698
66,overinformativeness,shoe_big_yellow,shoe,4152,\nayakkabı,Chrome,Mac,800,1280,Türkçe,1,Yes,29,Male,4,,,,786698
67,overinformativeness,mirror_big_white,mirror,2680,\nayna,Chrome,Mac,800,1280,Türkçe,1,Yes,29,Male,4,,,,786698
68,overinformativeness,brush_big_red,brush,3359,\nfırça,Chrome,Mac,800,1280,Türkçe,1,Yes,29,Male,4,,,,786698
69,overinformativeness,hat_big_orange,hat,3545,\nşapka,Chrome,Mac,800,1280,Türkçe,1,Yes,29,Male,4,,,,786698
70,overinformativeness,umbrella_big_blue,umbrella,6480,\nşemsiye,Chrome,Mac,800,1280,Türkçe,1,Yes,29,Male,4,,,,786698
71,overinformativeness,hat_big_pink,hat,3880,\nşapka,Chrome,Mac,800,1280,Türkçe,1,Yes,29,Male,4,,,,786698
72,overinformativeness,apple_big_green,apple,2191,\nelma,Chrome,Mac,800,1280,Türkçe,1,Yes,29,Male,4,,,,786698
73,overinformativeness,glasses_big_red,glasses,8498,\ngözlük,Chrome,Mac,800,1280,Türkçe,1,Yes,29,Male,4,,,,786698
74,overinformativeness,scissors_big_blue,scissors,2479,\nmakas,Chrome,Mac,800,1280,Türkçe,1,Yes,29,Male,4,,,,786698
75,overinformativeness,glasses_big_blue,glasses,23776,\ngözlük,Chrome,Mac,800,1280,Türkçe,1,Yes,29,Male,4,,,,786698
76,overinformativeness,tie_big_red,tie,4040,\nkıravat,Chrome,Mac,800,1280,Türkçe,1,Yes,29,Male,4,,,,786698
77,adjective_ordering,pencil_long_black,pencil,2591,\nkalem,Chrome,Mac,800,1280,Türkçe,1,Yes,29,Male,4,,,,786698
78,overinformativeness,dress_big_green,dress,2767,\nelbise,Chrome,Mac,800,1280,Türkçe,1,Yes,29,Male,4,,,,786698
79,overinformativeness,lighter_big_white,lighter,3087,\nçakmak,Chrome,Mac,800,1280,Türkçe,1,Yes,29,Male,4,,,,786698
80,overinformativeness,pants_big_green,pants,4977,\npantolon,Chrome,Mac,800,1280,Türkçe,1,Yes,29,Male,4,,,,786698
81,overinformativeness,key_big_gold,key,4240,\nanahtar,Chrome,Mac,800,1280,Türkçe,1,Yes,29,Male,4,,,,786698
82,adjective_ordering,picture_colored_rectangular,picture,4880,\ntablo,Chrome,Mac,800,1280,Türkçe,1,Yes,29,Male,4,,,,786698
83,overinformativeness,lipstick_big_pink,lipstick,3119,\nruj,Chrome,Mac,800,1280,Türkçe,1,Yes,29,Male,4,,,,786698
84,adjective_ordering,shorts_dry_green,shorts,5280,\nşort,Chrome,Mac,800,1280,Türkçe,1,Yes,29,Male,4,,,,786698
85,overinformativeness,socks_big_green,socks,4048,\nçorap,Chrome,Mac,800,1280,Türkçe,1,Yes,29,Male,4,,,,786698
86,adjective_ordering,hair_curly_brown,hair,3368,\nsaç,Chrome,Mac,800,1280,Türkçe,1,Yes,29,Male,4,,,,786698
87,overinformativeness,book_big_red,book,7880,\nkitap,Chrome,Mac,800,1280,Türkçe,1,Yes,29,Male,4,,,,786698
88,overinformativeness,socks_big_blue,socks,5216,\nçorap,Chrome,Mac,800,1280,Türkçe,1,Yes,29,Male,4,,,,786698
