slide_number_in_experiment,trial_type,label,object,rt,response,Browser,OS,screenH,screenW,language,enjoyment,asses,age,gender,education,comments,problems,fairprice,participant_id
1,bot_check,,beyaz,0,beyaz,Chrome,Windows,1080,1920,Türkçe,1,Yes,39,Male,2,,hayır,,850707
3,overinformativeness,lipstick_big_pink,lipstick,4502,ruj,Chrome,Windows,1080,1920,Türkçe,1,Yes,39,Male,2,,hayır,,850707
4,overinformativeness,scissors_big_blue,scissors,4529,makas,Chrome,Windows,1080,1920,Türkçe,1,Yes,39,Male,2,,hayır,,850707
5,overinformativeness,socks_big_green,socks,8647,çorap,Chrome,Windows,1080,1920,Türkçe,1,Yes,39,Male,2,,hayır,,850707
6,adjective_ordering,man2_bearded_glassed,man2,28944,gözlük ve takma sakal,Chrome,Windows,1080,1920,Türkçe,1,Yes,39,Male,2,,hayır,,850707
7,overinformativeness,toothbrush_big_green,toothbrush,4568,diş fırçası,Chrome,Windows,1080,1920,Türkçe,1,Yes,39,Male,2,,hayır,,850707
8,overinformativeness,book_big_red,book,3746,\nkitap,Chrome,Windows,1080,1920,Türkçe,1,Yes,39,Male,2,,hayır,,850707
9,adjective_ordering,cup_full_plastic,cup,4471,\nplastik bardak,Chrome,Windows,1080,1920,Türkçe,1,Yes,39,Male,2,,hayır,,850707
10,overinformativeness,ball_big_yellow,ball,5703,\ntop,Chrome,Windows,1080,1920,Türkçe,1,Yes,39,Male,2,,hayır,,850707
11,overinformativeness,flower_big_yellow,flower,3605,\nçiçek,Chrome,Windows,1080,1920,Türkçe,1,Yes,39,Male,2,,hayır,,850707
12,adjective_ordering,frog_spotted_green,frog,3500,\nkurbağa,Chrome,Windows,1080,1920,Türkçe,1,Yes,39,Male,2,,hayır,,850707
13,overinformativeness,umbrella_big_blue,umbrella,2058,\nşemsiye,Chrome,Windows,1080,1920,Türkçe,1,Yes,39,Male,2,,hayır,,850707
14,overinformativeness,skirt_big_blue,skirt,2453,\netek,Chrome,Windows,1080,1920,Türkçe,1,Yes,39,Male,2,,hayır,,850707
15,overinformativeness,tshirt_big_orange,tshirt,2868,\ntişört,Chrome,Windows,1080,1920,Türkçe,1,Yes,39,Male,2,,hayır,,850707
16,adjective_ordering,shorts_dry_green,shorts,2156,\nşort,Chrome,Windows,1080,1920,Türkçe,1,Yes,39,Male,2,,hayır,,850707
17,overinformativeness,shoe_big_pink,shoe,2675,\nayakkabı,Chrome,Windows,1080,1920,Türkçe,1,Yes,39,Male,2,,hayır,,850707
18,overinformativeness,bag_big_red,bag,1917,\nçanta,Chrome,Windows,1080,1920,Türkçe,1,Yes,39,Male,2,,hayır,,850707
19,adjective_ordering,woman_young_happy,woman,8770,\ngülen kadın,Chrome,Windows,1080,1920,Türkçe,1,Yes,39,Male,2,,hayır,,850707
20,overinformativeness,bag_big_blue,bag,2775,\nçanta,Chrome,Windows,1080,1920,Türkçe,1,Yes,39,Male,2,,hayır,,850707
21,overinformativeness,binoculars_big_blue,binoculars,3254,\ndürbün,Chrome,Windows,1080,1920,Türkçe,1,Yes,39,Male,2,,hayır,,850707
22,overinformativeness,scissors_big_green,scissors,1912,\nmakas,Chrome,Windows,1080,1920,Türkçe,1,Yes,39,Male,2,,hayır,,850707
23,overinformativeness,clock_big_yellow,clock,1570,\nsaat,Chrome,Windows,1080,1920,Türkçe,1,Yes,39,Male,2,,hayır,,850707
24,overinformativeness,glove_big_orange,glove,2893,\neldiven,Chrome,Windows,1080,1920,Türkçe,1,Yes,39,Male,2,,hayır,,850707
25,adjective_ordering,pencil_long_blue,pencil,2062,\nkalem,Chrome,Windows,1080,1920,Türkçe,1,Yes,39,Male,2,,hayır,,850707
26,overinformativeness,hat_big_orange,hat,3468,\nşapka,Chrome,Windows,1080,1920,Türkçe,1,Yes,39,Male,2,,hayır,,850707
27,overinformativeness,skirt_big_green,skirt,5039,\netek,Chrome,Windows,1080,1920,Türkçe,1,Yes,39,Male,2,,hayır,,850707
28,overinformativeness,tie_big_blue,tie,3274,\nkravat,Chrome,Windows,1080,1920,Türkçe,1,Yes,39,Male,2,,hayır,,850707
29,overinformativeness,mirror_big_black,mirror,5251,el aynası,Chrome,Windows,1080,1920,Türkçe,1,Yes,39,Male,2,,hayır,,850707
30,adjective_ordering,man_young_bald,man,6923,\nerkek,Chrome,Windows,1080,1920,Türkçe,1,Yes,39,Male,2,,hayır,,850707
31,overinformativeness,cat_big_white,cat,2027,\nkedi,Chrome,Windows,1080,1920,Türkçe,1,Yes,39,Male,2,,hayır,,850707
32,overinformativeness,chair_big_blue,chair,7759,\nsandalye,Chrome,Windows,1080,1920,Türkçe,1,Yes,39,Male,2,,hayır,,850707
33,overinformativeness,balloon_big_pink,balloon,3178,\nbalon,Chrome,Windows,1080,1920,Türkçe,1,Yes,39,Male,2,,hayır,,850707
34,overinformativeness,knife_big_blue,knife,2648,\nbıçak,Chrome,Windows,1080,1920,Türkçe,1,Yes,39,Male,2,,hayır,,850707
35,overinformativeness,car_big_green,car,3678,\noyuncak araba,Chrome,Windows,1080,1920,Türkçe,1,Yes,39,Male,2,,hayır,,850707
36,overinformativeness,ball_big_purple,ball,6585,\nmor top,Chrome,Windows,1080,1920,Türkçe,1,Yes,39,Male,2,,hayır,,850707
37,overinformativeness,hat_big_pink,hat,3929,\npembe şapka,Chrome,Windows,1080,1920,Türkçe,1,Yes,39,Male,2,,hayır,,850707
38,overinformativeness,car_big_blue,car,4551,\nmavi oyuncak araba,Chrome,Windows,1080,1920,Türkçe,1,Yes,39,Male,2,,hayır,,850707
39,overinformativeness,cat_big_black,cat,3503,\nkara kedi,Chrome,Windows,1080,1920,Türkçe,1,Yes,39,Male,2,,hayır,,850707
40,adjective_ordering,spoon_wooden_clean,spoon,3840,\ntahta kaşık,Chrome,Windows,1080,1920,Türkçe,1,Yes,39,Male,2,,hayır,,850707
41,overinformativeness,apple_big_red,apple,3465,\nkırmızı elma,Chrome,Windows,1080,1920,Türkçe,1,Yes,39,Male,2,,hayır,,850707
42,overinformativeness,lighter_big_black,lighter,2853,\nsiyah çakmak,Chrome,Windows,1080,1920,Türkçe,1,Yes,39,Male,2,,hayır,,850707
43,overinformativeness,rosary_big_yellow,rosary,3981,\ntesbih,Chrome,Windows,1080,1920,Türkçe,1,Yes,39,Male,2,,hayır,,850707
44,overinformativeness,pot_big_green,pot,4325,\nyeşil tencere,Chrome,Windows,1080,1920,Türkçe,1,Yes,39,Male,2,,hayır,,850707
45,overinformativeness,pot_big_blue,pot,2888,\nmavi tencere,Chrome,Windows,1080,1920,Türkçe,1,Yes,39,Male,2,,hayır,,850707
46,overinformativeness,tshirt_big_yellow,tshirt,2560,\nsarı tişört,Chrome,Windows,1080,1920,Türkçe,1,Yes,39,Male,2,,hayır,,850707
47,overinformativeness,dress_big_blue,dress,3939,\nmavi elbise,Chrome,Windows,1080,1920,Türkçe,1,Yes,39,Male,2,,hayır,,850707
48,overinformativeness,rosary_big_blue,rosary,7569,\nmavi tesbih,Chrome,Windows,1080,1920,Türkçe,1,Yes,39,Male,2,,hayır,,850707
49,overinformativeness,key_big_silver,key,2683,\nanahtar,Chrome,Windows,1080,1920,Türkçe,1,Yes,39,Male,2,,hayır,,850707
50,adjective_ordering,bottle_glass_big,bottle,5553,cam şişe,Chrome,Windows,1080,1920,Türkçe,1,Yes,39,Male,2,,hayır,,850707
51,overinformativeness,knife_big_red,knife,4674,\nkırmızı bıçak,Chrome,Windows,1080,1920,Türkçe,1,Yes,39,Male,2,,hayır,,850707
52,overinformativeness,glasses_big_blue,glasses,2640,\nmavi gözlük,Chrome,Windows,1080,1920,Türkçe,1,Yes,39,Male,2,,hayır,,850707
53,adjective_ordering,woman2_happy_skinny,woman2,4608,\ngülen kadın,Chrome,Windows,1080,1920,Türkçe,1,Yes,39,Male,2,,hayır,,850707
54,overinformativeness,mirror_big_white,mirror,4322,\nbeyaz el aynası,Chrome,Windows,1080,1920,Türkçe,1,Yes,39,Male,2,,hayır,,850707
55,overinformativeness,button_big_blue,button,4199,\nmavi düğme,Chrome,Windows,1080,1920,Türkçe,1,Yes,39,Male,2,,hayır,,850707
56,adjective_ordering,table_metal_high,table,2422,\nmasa,Chrome,Windows,1080,1920,Türkçe,1,Yes,39,Male,2,,hayır,,850707
57,overinformativeness,tie_big_red,tie,3095,\nkırmızı kravat,Chrome,Windows,1080,1920,Türkçe,1,Yes,39,Male,2,,hayır,,850707
58,overinformativeness,book_big_blue,book,2617,\nmavi kitap,Chrome,Windows,1080,1920,Türkçe,1,Yes,39,Male,2,,hayır,,850707
59,overinformativeness,pants_big_green,pants,5972,\nyeşil pantolon,Chrome,Windows,1080,1920,Türkçe,1,Yes,39,Male,2,,hayır,,850707
60,overinformativeness,chair_big_yellow,chair,4084,\nsarı sandalye,Chrome,Windows,1080,1920,Türkçe,1,Yes,39,Male,2,,hayır,,850707
61,overinformativeness,clock_big_purple,clock,3427,\nmor saat,Chrome,Windows,1080,1920,Türkçe,1,Yes,39,Male,2,,hayır,,850707
62,overinformativeness,socks_big_blue,socks,2742,\nmavi çorap,Chrome,Windows,1080,1920,Türkçe,1,Yes,39,Male,2,,hayır,,850707
63,overinformativeness,brush_big_red,brush,6733,\nkırmızı fırça,Chrome,Windows,1080,1920,Türkçe,1,Yes,39,Male,2,,hayır,,850707
64,overinformativeness,lock_big_gold,lock,3528,\nkilit,Chrome,Windows,1080,1920,Türkçe,1,Yes,39,Male,2,,hayır,,850707
65,overinformativeness,toothbrush_big_purple,toothbrush,4114,\nmor diş fırçası,Chrome,Windows,1080,1920,Türkçe,1,Yes,39,Male,2,,hayır,,850707
66,overinformativeness,shoe_big_yellow,shoe,2724,\nsarı ayakkabı,Chrome,Windows,1080,1920,Türkçe,1,Yes,39,Male,2,,hayır,,850707
67,overinformativeness,umbrella_big_green,umbrella,3844,\nyeşil şemsiye,Chrome,Windows,1080,1920,Türkçe,1,Yes,39,Male,2,,hayır,,850707
68,overinformativeness,apple_big_green,apple,2850,\nyeşil elma,Chrome,Windows,1080,1920,Türkçe,1,Yes,39,Male,2,,hayır,,850707
69,overinformativeness,lock_big_silver,lock,3238,\nkilit,Chrome,Windows,1080,1920,Türkçe,1,Yes,39,Male,2,,hayır,,850707
70,adjective_ordering,nails_black_glossy,nail_polish,9391,\nsiyah ojeli tırnaklar,Chrome,Windows,1080,1920,Türkçe,1,Yes,39,Male,2,,hayır,,850707
71,overinformativeness,pepper_big_green,pepper,9210,dolmalık yeşil biber,Chrome,Windows,1080,1920,Türkçe,1,Yes,39,Male,2,,hayır,,850707
72,overinformativeness,lipstick_big_red,lipstick,3747,\nkırmızı ruj,Chrome,Windows,1080,1920,Türkçe,1,Yes,39,Male,2,,hayır,,850707
73,overinformativeness,brush_big_blue,brush,3561,\nmavi fırça,Chrome,Windows,1080,1920,Türkçe,1,Yes,39,Male,2,,hayır,,850707
74,overinformativeness,key_big_gold,key,3144,\nsarı anahtar,Chrome,Windows,1080,1920,Türkçe,1,Yes,39,Male,2,,hayır,,850707
75,overinformativeness,glasses_big_red,glasses,4301,\nkırmızı gözlük,Chrome,Windows,1080,1920,Türkçe,1,Yes,39,Male,2,,hayır,,850707
76,adjective_ordering,earring_small_triangular,earring,4759,\nküpe,Chrome,Windows,1080,1920,Türkçe,1,Yes,39,Male,2,,hayır,,850707
77,overinformativeness,button_big_green,button,3319,\nyeşil düğme,Chrome,Windows,1080,1920,Türkçe,1,Yes,39,Male,2,,hayır,,850707
78,adjective_ordering,hair_curly_blonde,hair,4992,\nkıvırcık sarı saç,Chrome,Windows,1080,1920,Türkçe,1,Yes,39,Male,2,,hayır,,850707
79,overinformativeness,pants_big_pink,pants,6724,\nmor pantolon,Chrome,Windows,1080,1920,Türkçe,1,Yes,39,Male,2,,hayır,,850707
80,overinformativeness,lighter_big_white,lighter,4073,\nbeyaz çakmak,Chrome,Windows,1080,1920,Türkçe,1,Yes,39,Male,2,,hayır,,850707
81,adjective_ordering,box_closed_cardboard,box,5536,\nkutu,Chrome,Windows,1080,1920,Türkçe,1,Yes,39,Male,2,,hayır,,850707
82,overinformativeness,flower_big_pink,flower,5246,\npembe çiçek,Chrome,Windows,1080,1920,Türkçe,1,Yes,39,Male,2,,hayır,,850707
83,overinformativeness,binoculars_big_red,binoculars,4443,\nkırmızı dürbün,Chrome,Windows,1080,1920,Türkçe,1,Yes,39,Male,2,,hayır,,850707
84,overinformativeness,balloon_big_yellow,balloon,2362,\nsarı balon,Chrome,Windows,1080,1920,Türkçe,1,Yes,39,Male,2,,hayır,,850707
85,overinformativeness,pepper_big_red,pepper,4888,\nkırmızı dolmalık biber,Chrome,Windows,1080,1920,Türkçe,1,Yes,39,Male,2,,hayır,,850707
86,overinformativeness,glove_big_green,glove,3666,\nyeşil eldiven,Chrome,Windows,1080,1920,Türkçe,1,Yes,39,Male,2,,hayır,,850707
87,adjective_ordering,picture_colored_square,picture,6382,\nresim,Chrome,Windows,1080,1920,Türkçe,1,Yes,39,Male,2,,hayır,,850707
88,overinformativeness,dress_big_green,dress,3531,\nyeşil elbise,Chrome,Windows,1080,1920,Türkçe,1,Yes,39,Male,2,,hayır,,850707
